timestamp,attitude_roll,attitude_pitch,attitude_yaw,rotation_rate_x,rotation_rate_y,rotation_rate_z,gravity_x,gravity_y,gravity_z,user_acc_x,user_acc_y,user_acc_z327766.68,-2.672807,0.033967,0.746778,0.046341,-0.017162,-0.015522,-0.451543,-0.03396,0.891603,-0.016261,-0.008185,-0.018129327766.69,-2.673105,0.033605,0.747246,0.055985,-0.033263,-0.028202,-0.451283,-0.033598,0.891748,-0.015102,-0.016298,-0.018427327766.7,-2.673553,0.03321,0.747764,0.059146,-0.045002,-0.028139,-0.450889,-0.033204,0.891962,-0.009484,-0.018325,-0.01301327766.71,-2.674169,0.034118,0.748218,0.054825,-0.041739,-0.019647,-0.450325,-0.034112,0.892213,0.004189,-0.014655,-0.004411327766.72,-2.674477,0.033712,0.748547,0.051601,-0.025668,-0.009046,-0.450057,-0.033705,0.892364,0.013915,-0.013917,0.013734327766.73,-2.67461,0.033291,0.74873,0.04301,-0.007417,0.00684,-0.449944,-0.033285,0.892436,0.027139,-0.00474,0.027196327766.74,-2.674572,0.032885,0.74873,0.034403,0.006568,0.022739,-0.449985,-0.032879,0.892431,0.039447,0.000988,0.036891327766.76,-2.679229,0.031238,0.748222,-0.002167,0.007961,0.061927,-0.445847,-0.031232,0.894564,0.04477,0.001096,0.024122327766.75,-2.679339,0.031519,0.748703,0.02046,0.017344,0.037537,-0.445745,-0.031514,0.894605,0.048605,0.011738,0.035281327766.77,-2.679201,0.031072,0.747495,-0.022589,-0.001487,0.076725,-0.445875,-0.031067,0.894556,0.047819,0.009766,0.014563327766.79,-2.679461,0.030895,0.745618,-0.033449,-0.021618,0.092708,-0.445645,-0.03089,0.894677,0.054226,0.023779,-0.003899327766.78,-2.679292,0.030987,0.746582,-0.035542,-0.0163,0.08947,-0.445794,-0.030982,0.894599,0.050256,0.021002,0.000039327766.8,-2.679717,0.030773,0.744604,-0.034581,-0.029046,0.098059,-0.445417,-0.030768,0.894795,0.039472,-0.003228,-0.008327766.82,-2.680133,0.030552,0.742766,-0.033372,-0.023824,0.08097,-0.445048,-0.030547,0.894986,0.051387,0.005034,0.003406327766.81,-2.679929,0.030637,0.743644,-0.030224,-0.021646,0.089533,-0.445229,-0.030632,0.894892,0.04934,0.005089,0.001653327766.83,-2.680285,0.030571,0.741931,-0.040748,-0.014259,0.072335,-0.444911,-0.030566,0.895053,0.053767,-0.003492,0.007672327766.84,-2.680166,0.030676,0.741167,-0.044825,0.018742,0.061522,-0.445017,-0.030671,0.894997,0.054422,-0.010619,0.015983327766.85,-2.67975,0.030811,0.740526,-0.040365,0.044236,0.047603,-0.445387,-0.030806,0.894808,0.049025,-0.012682,0.016996327766.86,-2.679048,0.030868,0.739887,-0.031791,0.074129,0.057197,-0.446014,-0.030863,0.894494,0.059067,-0.018255,0.007789327766.87,-2.678189,0.030842,0.739271,-0.022156,0.089052,0.060439,-0.446783,-0.030837,0.894111,0.039984,-0.025941,0.005883327766.88,-2.677374,0.030681,0.738586,-0.020123,0.073091,0.066912,-0.447513,-0.030676,0.893751,0.05524,-0.028635,-0.003034327766.89,-2.676622,0.030463,0.737858,-0.012724,0.067785,0.074466,-0.448189,-0.030458,0.89342,0.044594,-0.010191,0.006269327766.9,-2.678555,0.03085,0.737198,-0.015952,0.062459,0.075522,-0.446455,-0.030845,0.894274,0.030699,-0.00718,0.009031327766.91,-2.678957,0.031049,0.736533,-0.0255,0.057083,0.064778,-0.446093,-0.031044,0.894448,0.010837,-0.0037,0.007652327766.92,-2.678807,0.032484,0.73587,-0.036114,0.063475,0.059324,-0.446207,-0.032478,0.89434,0.008341,-0.019875,-0.00135327766.93,-2.678143,0.032558,0.735134,-0.041494,0.066735,0.066742,-0.4468,-0.032552,0.894042,0.009834,-0.034159,-0.0175327766.94,-2.677533,0.032572,0.734168,-0.043874,0.056257,0.095582,-0.447345,-0.032567,0.893769,0.016757,-0.054103,-0.035507327766.95,-2.676962,0.03234,0.732844,-0.035686,0.053328,0.142643,-0.447858,-0.032334,0.89352,0.030775,-0.085677,-0.045924327766.97,-2.676598,0.03725,0.729018,0.017815,0.037932,0.263799,-0.448107,-0.037241,0.893204,0.028338,-0.093237,-0.023834327766.96,-2.677075,0.038457,0.73115,-0.006257,0.046144,0.201635,-0.44766,-0.038448,0.893377,0.030943,-0.097554,-0.040197327766.98,-2.676418,0.035671,0.726348,0.022554,-0.000071,0.328021,-0.448294,-0.035663,0.893175,0.005468,-0.057919,-0.010835327766.99,-2.676482,0.033982,0.723082,-0.00248,-0.020977,0.384456,-0.448263,-0.033976,0.893256,-0.00593,-0.016623,0.007776327767,-2.676705,0.032449,0.719315,-0.039055,-0.037746,0.415152,-0.448087,-0.032443,0.893401,-0.027896,0.028659,0.023606327767.01,-2.677031,0.031171,0.715334,-0.073264,-0.048302,0.417022,-0.447813,-0.031166,0.893584,-0.025179,0.060021,0.02852327767.02,-2.677565,0.030111,0.711417,-0.082775,-0.071888,0.392452,-0.447351,-0.030107,0.893852,-0.03057,0.066468,0.02607327767.03,-2.678132,0.029126,0.707853,-0.065396,-0.063637,0.355207,-0.446857,-0.029122,0.894131,-0.020657,0.059533,0.028278327767.04,-2.678544,0.028168,0.70476,-0.049001,-0.0469,0.310454,-0.4465,-0.028164,0.89434,-0.01314,0.047024,0.031975327767.05,-2.678821,0.027259,0.702238,-0.026121,-0.031319,0.254016,-0.446264,-0.027256,0.894486,-0.025324,0.057224,0.0307327767.06,-2.679047,0.026425,0.700347,-0.004314,-0.028565,0.192268,-0.446072,-0.026422,0.894607,-0.036197,0.063272,0.024491327767.07,-2.679369,0.025785,0.699238,0.013372,-0.036622,0.104892,-0.445791,-0.025782,0.894765,-0.04719,0.063166,0.007349327767.08,-2.679772,0.025376,0.699142,0.03972,-0.04267,0.001568,-0.445436,-0.025373,0.894954,-0.054351,0.0632,-0.025264327767.09,-2.680261,0.025153,0.69992,0.059493,-0.048553,-0.078323,-0.445,-0.02515,0.895177,-0.045677,0.059207,-0.048177327767.1,-2.680892,0.025128,0.701165,0.056533,-0.065865,-0.119938,-0.444436,-0.025125,0.895458,-0.021064,0.059427,-0.048733327767.11,-2.68176,0.025317,0.702547,0.038414,-0.091507,-0.136035,-0.443656,-0.025314,0.89584,-0.001641,0.051559,-0.035702327767.12,-2.682831,0.025802,0.703826,0.005272,-0.108484,-0.13734,-0.44269,-0.025799,0.896303,0.006915,0.041867,-0.018496327767.13,-2.683939,0.026556,0.70491,-0.027875,-0.107274,-0.129091,-0.441688,-0.026553,0.896776,0.012565,0.033542,-0.007173327767.14,-2.684993,0.027476,0.705769,-0.050383,-0.102854,-0.114352,-0.440732,-0.027472,0.897218,0.018735,0.025275,-0.008989327767.15,-2.686018,0.028412,0.706384,-0.060148,-0.101621,-0.092019,-0.439801,-0.028408,0.897646,0.02615,0.011151,-0.011385327767.16,-2.687098,0.029286,0.706737,-0.064656,-0.109961,-0.063204,-0.43882,-0.029282,0.898098,0.037346,-0.000733,-0.015712327767.17,-2.688242,0.030076,0.706819,-0.069153,-0.11724,-0.035459,-0.437782,-0.030072,0.898578,0.049095,-0.009662,-0.012378327767.18,-2.689446,0.0308,0.706664,-0.07469,-0.12347,-0.01093,-0.43669,-0.030795,0.899085,0.059737,-0.005124,-0.004035327767.19,-2.690528,0.031515,0.706221,-0.086568,-0.109416,0.014549,-0.435708,-0.03151,0.899537,0.057457,-0.014831,0.000671327767.21,-2.692386,0.032715,0.704961,-0.079115,-0.079473,0.031608,-0.434019,-0.032709,0.90031,0.052732,-0.012625,0.011403327767.2,-2.691555,0.032137,0.705606,-0.082399,-0.102923,0.03165,-0.434774,-0.032132,0.899966,0.053167,-0.017063,0.003415327767.22,-2.692978,0.033268,0.704464,-0.068255,-0.057202,0.016687,-0.433477,-0.033262,0.90055,0.051611,-0.014208,0.02018327767.23,-2.693371,0.033763,0.704253,-0.049842,-0.033952,-0.008849,-0.433117,-0.033757,0.900705,0.047161,-0.015133,0.026556327767.24,-2.693572,0.034178,0.704408,-0.024993,-0.015026,-0.040722,-0.43293,-0.034171,0.90078,0.038887,-0.014993,0.030708327767.25,-2.693577,0.034517,0.704939,-0.002291,0.007126,-0.06942,-0.43292,-0.03451,0.900772,0.03082,-0.016576,0.03592327767.26,-2.693362,0.034769,0.705769,0.017159,0.0304,-0.090676,-0.43311,-0.034762,0.900671,0.023487,-0.01518,0.03599327767.27,-2.692954,0.034981,0.706777,0.026925,0.049487,-0.103462,-0.433474,-0.034974,0.900487,0.018191,-0.017348,0.027354327767.28,-2.692355,0.035158,0.707883,0.034503,0.068627,-0.108792,-0.434011,-0.035151,0.900222,0.017125,-0.016439,0.024629327767.29,-2.691677,0.035314,0.709007,0.03345,0.072896,-0.108814,-0.434619,-0.035306,0.899922,0.017809,-0.015963,0.012187327767.3,-2.691019,0.035504,0.710102,0.030229,0.069712,-0.107765,-0.435207,-0.035497,0.89963,0.020306,-0.011989,-0.002032327767.31,-2.690419,0.035691,0.711164,0.029105,0.062277,-0.103481,-0.435745,-0.035684,0.899363,0.024536,-0.004447,-0.011561327767.32,-2.689881,0.035851,0.712203,0.032265,0.056957,-0.100234,-0.436226,-0.035843,0.899123,0.026085,-0.001754,-0.013854327767.33,-2.690538,0.035907,0.713242,0.034343,0.053787,-0.0938,-0.435634,-0.035899,0.899408,0.024775,0.001674,-0.014917327767.34,-2.690024,0.035959,0.714204,0.038582,0.055942,-0.08843,-0.436096,-0.035952,0.899182,0.020095,0.010012,-0.008023327767.35,-2.689523,0.035968,0.715133,0.039603,0.053839,-0.083076,-0.436545,-0.03596,0.898963,0.01139,0.018062,0.00161327767.36,-2.689079,0.03598,0.716008,0.03634,0.045344,-0.078808,-0.436945,-0.035972,0.898769,-0.00228,0.025963,0.010594327767.37,-2.688829,0.034525,0.71679,0.017043,0.027289,-0.075715,-0.437192,-0.034518,0.898706,-0.008365,0.022906,0.019645327767.38,-2.68877,0.03487,0.717435,-0.00975,0.002857,-0.072672,-0.437239,-0.034862,0.898669,-0.02173,0.024517,0.018643327767.39,-2.688884,0.035424,0.717904,-0.034422,-0.011944,-0.063232,-0.437128,-0.035416,0.898702,-0.022985,0.014573,0.005931327767.4,-2.688977,0.036072,0.71824,-0.046187,-0.007613,-0.058009,-0.437034,-0.036065,0.898721,-0.022316,0.006066,-0.004205327767.41,-2.687848,0.037138,0.718502,-0.04192,-0.001202,-0.05479,-0.438032,-0.03713,0.898192,-0.00989,-0.005488,-0.019012327767.42,-2.687932,0.037641,0.718848,-0.025946,-0.00977,-0.053557,-0.437949,-0.037632,0.898212,0.004935,-0.01289,-0.029941327767.43,-2.688091,0.037976,0.719227,-0.009993,-0.015113,-0.048063,-0.4378,-0.037967,0.89827,0.017695,-0.014569,-0.030533327767.44,-2.688282,0.038194,0.719616,-0.000428,-0.018311,-0.043698,-0.437625,-0.038184,0.898346,0.026004,-0.005273,-0.021149327767.45,-2.690292,0.038095,0.720019,0.001624,-0.02253,-0.034057,-0.43582,-0.038086,0.899228,0.036955,0.004974,-0.014096327767.46,-2.690579,0.03828,0.720304,-0.008002,-0.027835,-0.034125,-0.435559,-0.038271,0.899346,0.042676,0.004076,0.00225327767.47,-2.69082,0.038548,0.720505,-0.017628,-0.020304,-0.027825,-0.435338,-0.038538,0.899442,0.049321,0.017725,0.005603327767.48,-2.69098,0.038901,0.720677,-0.028241,-0.01391,-0.033276,-0.435188,-0.038891,0.899499,0.035804,0.013867,0.016776327767.49,-2.692932,0.038972,0.721007,-0.025997,-0.009739,-0.04608,-0.43343,-0.038962,0.900345,0.027897,0.006431,0.010712327767.5,-2.692935,0.039411,0.721438,-0.019421,0.006139,-0.062087,-0.433419,-0.039401,0.900331,0.021554,0.003451,0.011535327767.51,-2.692788,0.039801,0.722039,-0.005412,0.01989,-0.073752,-0.433545,-0.039791,0.900253,0.015073,0.003795,-0.000839327767.52,-2.692525,0.040075,0.722754,0.010667,0.032622,-0.076853,-0.433777,-0.040064,0.900129,0.012726,-0.006734,-0.010831327767.53,-2.692403,0.041245,0.723497,0.021289,0.029426,-0.071414,-0.433866,-0.041234,0.900033,0.010282,-0.016719,-0.01481327767.54,-2.692265,0.041234,0.724165,0.031796,0.012429,-0.056323,-0.433991,-0.041222,0.899974,0.011933,-0.019019,-0.015635327767.55,-2.692337,0.04116,0.724673,0.027348,-0.01199,-0.038125,-0.433928,-0.041148,0.900008,0.006849,-0.017873,-0.009352327767.56,-2.692648,0.041126,0.725004,0.014365,-0.035335,-0.025355,-0.433648,-0.041114,0.900144,0.00158,-0.009698,-0.004956327767.57,-2.692666,0.041535,0.725182,-0.000641,-0.039517,-0.019067,-0.433624,-0.041523,0.900136,-0.006775,-0.006054,-0.001989327767.58,-2.692988,0.041669,0.725299,-0.009173,-0.030943,-0.015964,-0.433332,-0.041657,0.900271,-0.004412,0.013275,-0.001528327767.59,-2.693331,0.041831,0.725391,-0.011323,-0.035203,-0.01597,-0.433021,-0.041819,0.900413,-0.003564,0.003489,-0.003898327767.6,-2.69366,0.042635,0.725523,-0.000665,-0.041637,-0.016927,-0.432709,-0.042622,0.900525,0.00055,-0.012615,-0.005094327767.61,-2.694264,0.043531,0.725685,0.004658,-0.038433,-0.013688,-0.432149,-0.043517,0.900752,0.003178,-0.016953,0.003011327767.62,-2.694816,0.044196,0.725786,0.004581,-0.044785,-0.006197,-0.431639,-0.044181,0.900964,0.000746,-0.014153,0.002067327767.63,-2.695534,0.044246,0.72576,-0.000853,-0.041479,0.008694,-0.430991,-0.044231,0.901271,0.008796,-0.001179,-0.00494327767.64,-2.69598,0.043927,0.725617,-0.012636,-0.04462,0.012872,-0.430595,-0.043913,0.901477,0.001746,0.007902,-0.004183327767.65,-2.696722,0.043999,0.725444,-0.014767,-0.043549,0.012851,-0.429925,-0.043985,0.901793,0.012948,0.001047,-0.011259327767.66,-2.697861,0.044069,0.725349,-0.008316,-0.04147,0.007562,-0.428896,-0.044055,0.902279,0.017168,-0.000119,0.002521327767.67,-2.699182,0.04385,0.725308,-0.009322,-0.030828,0.004319,-0.427708,-0.043836,0.902854,0.023441,0.006879,0.005487327767.69,-2.701311,0.043053,0.725294,-0.011276,-0.002105,-0.00646,-0.425799,-0.04304,0.903793,0.02312,0.016642,0.002029327767.68,-2.700413,0.043563,0.725269,-0.009269,-0.015903,0.004275,-0.426601,-0.04355,0.903391,0.026546,0.009309,0.004065327767.7,-2.702141,0.042562,0.725422,-0.005857,0.001016,-0.016031,-0.425058,-0.042549,0.904165,0.028253,0.017311,-0.008749327767.71,-2.702889,0.041841,0.725681,0.00062,-0.003343,-0.027704,-0.424394,-0.041829,0.904511,0.02437,0.023518,-0.005478327767.72,-2.703502,0.041134,0.726028,0.001714,-0.018343,-0.038325,-0.423853,-0.041123,0.904797,0.013941,0.024246,0.000766327767.73,-2.704172,0.040799,0.726428,-0.005754,-0.035438,-0.046879,-0.423252,-0.040788,0.905094,0.007602,0.016435,0.00607327767.74,-2.704854,0.040687,0.726851,-0.011059,-0.035451,-0.051196,-0.422637,-0.040675,0.905386,0.000853,0.01208,0.019022327767.75,-2.705443,0.040876,0.727266,-0.02062,-0.024769,-0.052379,-0.422099,-0.040865,0.905628,-0.001195,0.005434,0.023419327767.76,-2.705941,0.041377,0.727634,-0.024849,-0.006611,-0.049268,-0.42164,-0.041365,0.905819,0.004526,-0.002244,0.018314327767.78,-2.706412,0.043008,0.728132,-0.024901,0.021236,-0.029067,-0.421185,-0.042994,0.905955,0.018368,-0.016545,-0.009562327767.77,-2.706225,0.042101,0.727932,-0.025908,0.013704,-0.040797,-0.421371,-0.042088,0.905911,0.009429,-0.009669,0.006976327767.79,-2.706668,0.044124,0.728222,-0.020756,0.014911,-0.015132,-0.420932,-0.04411,0.906019,0.02402,-0.02605,-0.018125327767.8,-2.706971,0.045104,0.728206,-0.021947,0.004323,-0.003367,-0.420639,-0.045089,0.906107,0.024796,-0.02385,-0.023783327767.81,-2.707143,0.045776,0.728082,-0.025287,-0.016942,0.00521,-0.42047,-0.04576,0.906152,0.012435,-0.01471,-0.022332327767.82,-2.707193,0.046165,0.727862,-0.030693,-0.025424,0.010527,-0.420418,-0.046149,0.906156,0.001594,-0.004846,-0.019026327767.83,-2.707226,0.046288,0.72759,-0.034985,-0.025391,0.013693,-0.420386,-0.046271,0.906165,0.000494,0.00579,-0.019522327767.84,-2.707282,0.046357,0.727333,-0.032812,-0.021151,0.010496,-0.420333,-0.046341,0.906186,0.002883,0.008255,-0.019711327767.85,-2.707387,0.046454,0.727192,-0.018863,-0.013765,0.004189,-0.420236,-0.046438,0.906226,0.005792,0.003911,-0.016394327767.86,-2.707613,0.046539,0.727153,-0.00815,-0.015967,-0.002118,-0.42003,-0.046522,0.906317,0.006639,0.000853,-0.008047327767.87,-2.707951,0.046715,0.727221,-0.000636,-0.021373,-0.010578,-0.41972,-0.046698,0.906452,0.003536,-0.004786,0.004223327767.88,-2.70826,0.046809,0.727428,0.000529,-0.026808,-0.026567,-0.419437,-0.046792,0.906577,-0.005642,-0.001151,0.015801327767.89,-2.708437,0.046846,0.727785,0.00599,-0.024789,-0.042542,-0.419276,-0.046829,0.90665,-0.01421,0.002518,0.021801327767.9,-2.708602,0.046968,0.728293,0.01146,-0.011015,-0.054281,-0.419125,-0.04695,0.906714,-0.017505,-0.004441,0.015649327767.91,-2.708456,0.047293,0.728893,0.019022,0.001722,-0.060661,-0.41925,-0.047275,0.906639,-0.011948,-0.009884,0.007698327767.92,-2.708283,0.047634,0.729527,0.025421,0.004917,-0.05848,-0.419401,-0.047616,0.906552,-0.006015,-0.012336,-0.001767327767.93,-2.708152,0.047904,0.73011,0.028542,-0.000369,-0.049895,-0.419514,-0.047886,0.906485,-0.002636,-0.012035,-0.009024327767.94,-2.708093,0.04807,0.730586,0.026296,-0.005615,-0.037086,-0.419564,-0.048052,0.906453,-0.001136,-0.009626,-0.010121327767.95,-2.707859,0.04791,0.730903,0.01763,-0.012967,-0.023259,-0.419779,-0.047891,0.906362,-0.003088,0.006006,-0.008321327767.96,-2.70804,0.047575,0.731064,0.006849,-0.017123,-0.010527,-0.419622,-0.047557,0.906452,0.005026,0.01382,-0.009754327767.97,-2.708477,0.047292,0.731078,-0.003942,-0.024479,0.002215,-0.419231,-0.047274,0.906648,0.015621,0.013705,-0.013261327767.98,-2.709199,0.047096,0.73098,-0.007247,-0.03187,0.012887,-0.418581,-0.047078,0.906959,0.025179,0.009999,-0.011023327767.99,-2.710108,0.046925,0.730799,-0.007334,-0.039284,0.021451,-0.417759,-0.046908,0.907346,0.029515,0.007922,-0.007734327768,-2.711133,0.046583,0.730572,-0.005241,-0.042465,0.02575,-0.416836,-0.046566,0.907788,0.031155,0.013424,-0.002606327768.01,-2.712275,0.046059,0.730357,-0.008429,-0.045678,0.02253,-0.415809,-0.046043,0.908286,0.03559,0.022666,-0.002188327768.02,-2.713578,0.045503,0.730236,-0.01048,-0.051094,0.008649,-0.414636,-0.045487,0.90885,0.041757,0.027573,-0.00379327768.03,-2.714066,0.045566,0.730281,0.000367,-0.045925,-0.012627,-0.414191,-0.045551,0.90905,0.038168,0.022937,0.001976327768.04,-2.714364,0.045529,0.730621,0.023034,-0.020534,-0.034929,-0.41392,-0.045513,0.909175,0.026286,0.021908,0.010778327768.05,-2.714366,0.045369,0.731261,0.046787,0.010185,-0.057237,-0.413922,-0.045353,0.909182,0.022839,0.026295,0.015379327768.06,-2.714489,0.044588,0.732178,0.059884,0.034527,-0.078544,-0.413824,-0.044573,0.909265,0.010367,0.02492,0.017386327768.07,-2.714026,0.044429,0.733242,0.057943,0.056826,-0.094644,-0.414248,-0.044415,0.909079,-0.003964,0.011761,0.021112327768.08,-2.713439,0.044378,0.734362,0.049496,0.065327,-0.103286,-0.414783,-0.044363,0.908838,-0.01968,0.003256,0.017447327768.09,-2.712862,0.044476,0.73548,0.034568,0.061076,-0.107674,-0.415306,-0.044461,0.908595,-0.031792,-0.00719,0.007802327768.1,-2.711589,0.045016,0.73653,0.024916,0.04831,-0.10772,-0.416452,-0.045001,0.908043,-0.036978,-0.015028,-0.003548327768.11,-2.711306,0.04527,0.737601,0.020576,0.028062,-0.107697,-0.416704,-0.045255,0.907915,-0.037459,-0.022204,-0.015215327768.12,-2.711179,0.045514,0.738607,0.020473,0.014246,-0.100182,-0.416815,-0.045498,0.907852,-0.029718,-0.027393,-0.028274327768.13,-2.711167,0.045693,0.739496,0.020324,0.00261,-0.085199,-0.416822,-0.045677,0.90784,-0.019869,-0.034477,-0.033526327768.14,-2.711222,0.045756,0.740227,0.025484,-0.00367,-0.06378,-0.416771,-0.04574,0.90786,-0.008766,-0.038885,-0.030861327768.15,-2.711348,0.045684,0.740723,0.028444,-0.013096,-0.034897,-0.416658,-0.045668,0.907915,0.007616,-0.038575,-0.027514327768.16,-2.711544,0.045499,0.740927,0.023917,-0.020349,-0.002882,-0.416484,-0.045483,0.908005,0.017878,-0.028995,-0.013229327768.17,-2.711808,0.045272,0.740819,0.013005,-0.02867,0.025877,-0.416248,-0.045256,0.908124,0.021732,-0.012147,-0.001218327768.18,-2.712105,0.045068,0.740438,0.000015,-0.031687,0.049264,-0.415982,-0.045053,0.908256,0.02612,-0.004188,0.007302327768.2,-2.712558,0.044807,0.739177,-0.022483,-0.01765,0.067177,-0.415576,-0.044792,0.908455,0.032595,0.018882,0.000297327768.19,-2.712376,0.044901,0.739856,-0.011816,-0.02837,0.063031,-0.415739,-0.044886,0.908376,0.028517,0.011881,0.004436327768.21,-2.71256,0.044753,0.738498,-0.022389,0.000451,0.062852,-0.415575,-0.044738,0.908458,0.033861,0.023482,-0.007366327768.22,-2.712403,0.044679,0.737922,-0.015821,0.016385,0.054316,-0.415718,-0.044665,0.908396,0.030968,0.023913,-0.011271327768.23,-2.712139,0.044554,0.737502,-0.001807,0.026924,0.040525,-0.415961,-0.044539,0.908291,0.025794,0.016829,-0.00938327768.24,-2.711819,0.044384,0.737242,0.006844,0.032152,0.027772,-0.416255,-0.04437,0.908165,0.017635,0.010556,-0.003059327768.26,-2.711321,0.044063,0.737137,0.014444,0.020256,0.004384,-0.416712,-0.044048,0.90797,-0.00385,0.000271,0.011982327768.25,-2.711533,0.044217,0.737131,0.012262,0.02672,0.013955,-0.416518,-0.044203,0.908052,0.006194,0.003721,0.006071327768.27,-2.711166,0.044012,0.737206,0.005964,0.014881,-0.006351,-0.416854,-0.043998,0.907908,-0.009553,-0.000405,0.008779327768.28,-2.711039,0.044045,0.737308,-0.00041,0.012733,-0.011739,-0.416969,-0.044031,0.907854,-0.014336,-0.001913,0.003523327768.29,-2.710919,0.044136,0.737446,-0.003562,0.013768,-0.018176,-0.417076,-0.044122,0.9078,-0.015709,-0.007437,-0.002435327768.3,-2.710779,0.044263,0.737599,-0.00461,0.014824,-0.020324,-0.417201,-0.044248,0.907736,-0.015767,-0.008089,-0.009558327768.31,-2.7106,0.044366,0.737727,-0.003566,0.01912,-0.014989,-0.417361,-0.044351,0.907658,-0.012998,-0.008139,-0.015995327768.32,-2.710409,0.044441,0.737804,-0.003612,0.01916,-0.008583,-0.417534,-0.044426,0.907575,-0.010521,-0.002327,-0.024365327768.33,-2.709665,0.044632,0.737793,-0.004738,0.016006,-0.002177,-0.418205,-0.044617,0.907256,-0.008186,-0.003494,-0.027862327768.34,-2.709572,0.044664,0.737737,-0.005893,0.006459,0.005316,-0.418289,-0.04465,0.907216,-0.004761,-0.004774,-0.026936327768.35,-2.70961,0.044675,0.737644,-0.005964,-0.007384,0.00856,-0.418255,-0.04466,0.907231,-0.006687,-0.004732,-0.02123327768.36,-2.709752,0.044677,0.737532,-0.004938,-0.016977,0.009666,-0.418126,-0.044662,0.907291,-0.005061,-0.002518,-0.016345327768.37,-2.709842,0.044641,0.737445,-0.002803,-0.021261,0.007562,-0.418044,-0.044626,0.90733,-0.000886,0.001474,-0.007321327768.38,-2.710081,0.044439,0.737407,-0.003834,-0.024497,0.001157,-0.417832,-0.044424,0.907438,0.000687,0.007742,-0.001554327768.39,-2.710436,0.044273,0.737454,-0.003705,-0.02239,-0.007391,-0.417513,-0.044259,0.907593,0.002291,0.007897,0.005417327768.4,-2.710885,0.044095,0.737586,-0.002549,-0.017122,-0.017006,-0.417108,-0.04408,0.907787,0.005197,0.009473,0.010395327768.41,-2.71129,0.04398,0.737785,-0.003524,-0.004364,-0.023459,-0.416743,-0.043966,0.907961,0.009028,0.008871,0.008589327768.42,-2.711546,0.043923,0.73803,-0.001306,0.01053,-0.027756,-0.416511,-0.043909,0.90807,0.009544,0.007028,0.007839327768.43,-2.711666,0.043973,0.738304,-0.003383,0.020112,-0.031006,-0.416401,-0.043959,0.908118,0.010594,0.004149,0.003564327768.44,-2.711636,0.044132,0.738581,-0.003368,0.024376,-0.031019,-0.416425,-0.044118,0.908099,0.009565,0.000142,-0.002291327768.45,-2.711523,0.044341,0.738847,-0.003384,0.020111,-0.031006,-0.416524,-0.044327,0.908043,0.006612,-0.00174,-0.006783327768.46,-2.711457,0.044644,0.739103,-0.004478,0.014788,-0.029932,-0.416579,-0.044629,0.908004,0.007842,-0.004825,-0.008986327768.47,-2.711404,0.04486,0.739338,-0.001295,0.015865,-0.026704,-0.416623,-0.044845,0.907973,0.006985,-0.002915,-0.006605327768.48,-2.711304,0.045082,0.739584,-0.000217,0.019061,-0.026705,-0.41671,-0.045067,0.907922,0.007316,-0.003578,-0.008737327768.49,-2.711199,0.045302,0.739857,0.004082,0.02544,-0.027755,-0.416801,-0.045286,0.907869,0.007575,-0.004946,-0.004564327768.5,-2.711055,0.045545,0.740113,0.00301,0.028655,-0.025639,-0.416927,-0.04553,0.907799,0.006847,-0.006716,-0.001778327768.51,-2.711027,0.045824,0.740368,0.00514,0.029721,-0.024556,-0.416947,-0.045808,0.907776,0.01001,-0.008819,0.003235327768.52,-2.710956,0.046056,0.740603,0.00512,0.028667,-0.022418,-0.417007,-0.04604,0.907736,0.006149,-0.008388,0.008233327768.53,-2.710937,0.046246,0.740824,0.004023,0.022278,-0.02134,-0.41702,-0.046229,0.907721,0.005521,-0.006475,0.009912327768.54,-2.710881,0.046318,0.741031,-0.003388,0.017007,-0.023518,-0.41707,-0.046301,0.907694,0.000001,0.001043,0.012701327768.55,-2.710709,0.046313,0.741231,-0.010824,0.018067,-0.027857,-0.417226,-0.046296,0.907623,-0.004939,0.008134,0.010178327768.56,-2.710379,0.046471,0.741449,-0.012902,0.027651,-0.031107,-0.417522,-0.046454,0.907478,-0.007374,0.003516,0.006386327768.57,-2.709866,0.046727,0.741712,-0.00537,0.038274,-0.034277,-0.417983,-0.04671,0.907253,-0.00464,-0.00163,-0.00729327768.58,-2.709218,0.047035,0.742026,0.003203,0.04357,-0.036354,-0.418564,-0.047018,0.906969,-0.003249,-0.006587,-0.017641327768.59,-2.708645,0.047252,0.742362,0.012752,0.033968,-0.033038,-0.41908,-0.047235,0.90672,-0.001208,-0.006888,-0.021786327768.6,-2.708128,0.047394,0.742705,0.015886,0.016906,-0.031892,-0.419546,-0.047376,0.906497,-0.004725,-0.005816,-0.024921327768.61,-2.707762,0.047509,0.742992,0.013645,-0.002247,-0.026515,-0.419876,-0.047491,0.906338,-0.00705,-0.005136,-0.022336327768.62,-2.707582,0.047664,0.74322,0.008221,-0.01606,-0.021182,-0.420035,-0.047646,0.906256,-0.007058,-0.005897,-0.020453327768.63,-2.707588,0.047897,0.743385,0.000684,-0.025609,-0.016948,-0.420026,-0.047879,0.906248,-0.003925,-0.00809,-0.017927327768.64,-2.707762,0.048177,0.743483,-0.001509,-0.028761,-0.010552,-0.419862,-0.048158,0.906309,0.000093,-0.010145,-0.012938327768.65,-2.708037,0.048482,0.743506,-0.003714,-0.030835,-0.002023,-0.419606,-0.048463,0.906412,0.001729,-0.012023,-0.007013327768.66,-2.708376,0.04873,0.743455,-0.000567,-0.028658,0.006539,-0.419294,-0.04871,0.906543,0.005018,-0.011669,-0.005206327768.67,-2.708718,0.048874,0.743363,0.000472,-0.027568,0.010816,-0.418982,-0.048855,0.90668,0.004812,-0.008656,-0.002367327768.68,-2.709057,0.048925,0.743252,0.000453,-0.028621,0.012954,-0.418673,-0.048905,0.906819,0.004168,-0.005187,-0.001668327768.69,-2.709362,0.048874,0.743134,0.003632,-0.03075,0.015124,-0.418398,-0.048854,0.906949,0.000642,-0.001835,-0.00105327768.7,-2.709635,0.048767,0.743032,0.004791,-0.031762,0.011959,-0.418151,-0.048748,0.907068,-0.000977,0.000759,-0.002573327768.71,-2.709864,0.048538,0.742953,0.005878,-0.028572,0.010891,-0.417949,-0.048519,0.907174,-0.001729,0.006832,-0.003289327768.72,-2.710034,0.04834,0.742902,0.006977,-0.026462,0.007691,-0.417798,-0.048321,0.907254,-0.002872,0.005444,-0.004712327768.73,-2.710259,0.048195,0.74286,0.005909,-0.026459,0.007682,-0.417598,-0.048176,0.907354,-0.000585,0.002644,-0.003393327768.74,-2.710446,0.048078,0.742826,0.008059,-0.024338,0.006627,-0.41743,-0.04806,0.907437,-0.001714,0.000788,-0.003537327768.75,-2.710683,0.047999,0.742787,0.011246,-0.022195,0.009851,-0.417216,-0.047981,0.90754,0.001964,-0.002145,-0.002877327768.76,-2.710893,0.047942,0.742714,0.008039,-0.016834,0.01301,-0.417027,-0.047923,0.90763,0.003132,-0.003194,-0.002631327768.77,-2.711041,0.047822,0.742623,0.005915,-0.01149,0.014043,-0.416895,-0.047804,0.907697,0.003916,0.000273,-0.005231327768.78,-2.71122,0.04767,0.742528,0.002732,-0.00829,0.012938,-0.416735,-0.047652,0.907778,0.007601,0.003417,-0.00545327768.79,-2.711388,0.047513,0.742453,0.001703,-0.006181,0.008652,-0.416586,-0.047495,0.907855,0.010611,0.005854,-0.010348327768.8,-2.711616,0.047334,0.742456,0.004972,-0.005177,0.000135,-0.416383,-0.047317,0.907957,0.013063,0.007491,-0.007383327768.81,-2.711873,0.047188,0.742532,0.005026,-0.003086,-0.006277,-0.416152,-0.04717,0.908071,0.015746,0.007253,-0.00797327768.82,-2.712192,0.046986,0.742669,0.007196,-0.004192,-0.011593,-0.415867,-0.046969,0.908212,0.018406,0.010042,-0.006539327768.83,-2.712526,0.046882,0.742837,0.006152,-0.002071,-0.013744,-0.415565,-0.046865,0.908355,0.019966,0.00562,-0.005981327768.84,-2.712813,0.046827,0.743009,0.006164,-0.001013,-0.014814,-0.415306,-0.046809,0.908477,0.017662,0.003764,-0.004821327768.85,-2.713012,0.04687,0.743156,0.005081,-0.000998,-0.012689,-0.415124,-0.046853,0.908558,0.012475,-0.001197,-0.003422327768.86,-2.713135,0.046883,0.743282,0.006133,-0.000988,-0.010544,-0.415012,-0.046866,0.908608,0.008533,-0.000971,-0.004387327768.87,-2.713144,0.046882,0.743379,0.005058,0.001161,-0.008424,-0.415004,-0.046865,0.908612,0.001872,-0.000377,-0.002713327768.88,-2.713051,0.046892,0.743439,0.002903,0.002254,-0.005243,-0.415088,-0.046875,0.908573,-0.003598,-0.001313,-0.00153327768.89,-2.712863,0.046835,0.743478,0.001835,0.006536,-0.00313,-0.41526,-0.046817,0.908497,-0.007759,0.002399,-0.001332327768.9,-2.712598,0.046749,0.743504,0.00078,0.009739,-0.003149,-0.415502,-0.046732,0.908391,-0.009226,0.005289,-0.002522327768.91,-2.712315,0.046693,0.743528,-0.000269,0.012935,-0.004235,-0.415761,-0.046676,0.908275,-0.007487,0.004058,-0.004558327768.92,-2.712074,0.04671,0.743574,-0.00026,0.010789,-0.006364,-0.415979,-0.046693,0.908175,-0.003989,0.000749,-0.007433327768.93,-2.711919,0.046778,0.743648,0.003998,0.007579,-0.006317,-0.416118,-0.04676,0.908107,-0.000584,-0.002892,-0.007427327768.94,-2.711857,0.046782,0.743705,0.00396,0.001195,-0.004163,-0.416175,-0.046765,0.908081,0.000357,-0.000934,-0.0056327768.95,-2.711923,0.046773,0.743764,0.005005,-0.005206,-0.004134,-0.416115,-0.046756,0.908109,0.003411,-0.000851,-0.003949327768.96,-2.712018,0.046742,0.743812,0.004997,-0.0052,-0.003066,-0.41603,-0.046725,0.90815,0.004347,0.00046,-0.004158327768.97,-2.712169,0.046706,0.74387,0.000732,-0.008401,-0.005229,-0.415893,-0.046689,0.908214,0.006301,0.001904,-0.003826327768.98,-2.712301,0.046756,0.743943,0.000755,-0.008421,-0.008432,-0.415772,-0.046739,0.908267,0.005127,-0.001357,-0.006091327768.99,-2.712445,0.04683,0.744049,-0.001364,-0.010568,-0.011648,-0.415639,-0.046813,0.908324,0.005773,-0.000779,-0.008269327769,-2.712545,0.046915,0.744189,-0.00343,-0.004204,-0.018091,-0.415547,-0.046898,0.908362,0.006108,0.000877,-0.010245327769.01,-2.712681,0.047031,0.744368,-0.001276,-0.005297,-0.021273,-0.415422,-0.047013,0.908413,0.010881,0.000672,-0.013256327769.02,-2.712881,0.047232,0.744592,0.001956,-0.003193,-0.024454,-0.415236,-0.047215,0.908488,0.014327,-0.005672,-0.011805327769.03,-2.713067,0.047402,0.744867,0.012656,0.002101,-0.025445,-0.415063,-0.047384,0.908558,0.014871,-0.008097,-0.008671327769.04,-2.713249,0.047542,0.745162,0.016921,0.005301,-0.023282,-0.414896,-0.047524,0.908627,0.013559,-0.010032,-0.000531327769.05,-2.713399,0.04758,0.74548,0.022272,0.009551,-0.023249,-0.414758,-0.047562,0.908688,0.012476,-0.007278,0.002628327769.06,-2.713506,0.047558,0.745775,0.02332,0.008494,-0.021101,-0.414662,-0.04754,0.908733,0.010319,-0.005759,0.001713327769.07,-2.713525,0.047479,0.74602,0.017937,0.00427,-0.016865,-0.414646,-0.047461,0.908744,0.004978,-0.001184,-0.003334327769.08,-2.71346,0.047434,0.746202,0.010427,0.002184,-0.012653,-0.414705,-0.047417,0.908719,-0.001707,-0.001106,-0.002592327769.09,-2.713346,0.047393,0.746322,0.002929,-0.00098,-0.010573,-0.41481,-0.047376,0.908674,-0.004044,0.002683,-0.007444327769.1,-2.713191,0.047347,0.74638,-0.002438,-0.003077,-0.00741,-0.414952,-0.047329,0.908611,-0.007091,0.005535,-0.009548327769.11,-2.713041,0.04737,0.74641,-0.002461,-0.005196,-0.005268,-0.415087,-0.047352,0.908548,-0.007261,0.001271,-0.011088327769.12,-2.712957,0.04743,0.746428,-0.001413,-0.006251,-0.00312,-0.415162,-0.047412,0.908511,-0.003966,-0.001141,-0.010775327769.13,-2.71299,0.047444,0.746449,0.001766,-0.010518,-0.002012,-0.415132,-0.047426,0.908524,-0.001219,0.000047,-0.007508327769.14,-2.713074,0.047412,0.746436,0.000665,-0.013694,0.001191,-0.415057,-0.047394,0.90856,0.000171,0.001786,-0.007757327769.15,-2.713236,0.047357,0.746441,0.000673,-0.0137,0.000124,-0.414911,-0.047339,0.90863,0.002923,0.002707,-0.003112327769.16,-2.713421,0.047294,0.746436,-0.002533,-0.014758,0.000099,-0.414744,-0.047277,0.908709,0.00358,0.004506,-0.002826327769.17,-2.713605,0.04723,0.746427,-0.005723,-0.01369,-0.000999,-0.414578,-0.047212,0.908788,0.004056,0.005891,-0.002553327769.18,-2.713774,0.047232,0.746423,-0.006779,-0.012628,-0.002079,-0.414424,-0.047214,0.908858,0.004192,0.00391,-0.003402327769.19,-2.71389,0.04729,0.746427,-0.007816,-0.008373,-0.004237,-0.414318,-0.047273,0.908904,0.003963,0.001695,-0.005843327769.2,-2.714024,0.047393,0.746442,-0.004606,-0.006249,-0.004215,-0.414194,-0.047375,0.908955,0.005625,-0.002017,-0.004139327769.21,-2.714185,0.047505,0.746474,-0.001408,-0.007325,-0.004184,-0.414045,-0.047487,0.909017,0.008009,-0.003721,-0.005727327769.22,-2.714306,0.047568,0.746507,0.000719,-0.007324,-0.003098,-0.413934,-0.04755,0.909064,0.004938,-0.00227,-0.004538327769.23,-2.714426,0.047667,0.746542,0.000711,-0.007318,-0.002031,-0.413823,-0.047649,0.90911,0.003484,-0.005467,-0.002173327769.24,-2.714476,0.047706,0.746559,-0.000349,-0.005182,-0.002046,-0.413777,-0.047688,0.909128,0.000355,-0.001491,-0.002009327769.25,-2.714471,0.047711,0.746567,-0.002488,-0.004103,-0.001001,-0.413781,-0.047693,0.909126,-0.001426,0.001383,-0.004082327769.26,-2.714455,0.047769,0.746557,-0.004619,-0.00303,-0.001022,-0.413795,-0.047751,0.909117,-0.000527,-0.000711,-0.005308327769.27,-2.714432,0.047831,0.746524,-0.006777,-0.005143,0.001101,-0.413815,-0.047813,0.909105,-0.000492,-0.000085,-0.007676327769.28,-2.71437,0.047879,0.746488,-0.006769,-0.00301,0.001094,-0.41387,-0.047861,0.909077,-0.001246,0.000803,-0.010533327769.29,-2.714348,0.047929,0.74642,-0.005744,-0.008324,0.004323,-0.413889,-0.047911,0.909066,-0.001151,0.000517,-0.010232327769.3,-2.714377,0.048057,0.746338,-0.006827,-0.010447,0.005387,-0.41386,-0.048039,0.909072,-0.000844,-0.004482,-0.007507327769.31,-2.714406,0.048168,0.746247,-0.006838,-0.011506,0.006458,-0.413832,-0.048149,0.909079,-0.001513,-0.00399,-0.008261327769.32,-2.714447,0.04828,0.746155,-0.007906,-0.011503,0.006448,-0.413792,-0.048261,0.909091,-0.001308,-0.003863,-0.007694327769.33,-2.714478,0.04843,0.746051,-0.007911,-0.01043,0.007513,-0.41376,-0.048411,0.909098,-0.002011,-0.006063,-0.005945327769.34,-2.714517,0.048543,0.745956,-0.005757,-0.007243,0.006454,-0.413723,-0.048524,0.909109,-0.000385,-0.004912,-0.004049327769.35,-2.714575,0.048588,0.745882,-0.001484,-0.006188,0.006488,-0.413669,-0.048569,0.909131,0.001605,-0.002731,-0.004331327769.36,-2.714639,0.048621,0.745834,0.000666,-0.006207,0.004371,-0.41361,-0.048602,0.909156,0.001501,-0.002484,-0.002799327769.37,-2.714756,0.048595,0.745811,0.002812,-0.005154,0.003319,-0.413505,-0.048576,0.909205,0.004401,-0.000496,-0.001155327769.38,-2.714874,0.048554,0.745805,0.003898,-0.001965,0.002251,-0.413398,-0.048535,0.909256,0.007712,0.000271,-0.00383327769.39,-2.715028,0.048512,0.7458,0.003894,-0.000893,0.003315,-0.413259,-0.048493,0.909321,0.009939,0.00026,-0.002247327769.4,-2.715172,0.04847,0.745789,0.003906,0.002305,0.003306,-0.413129,-0.048451,0.909383,0.010694,-0.000301,-0.000707327769.41,-2.715294,0.048414,0.745783,0.003917,0.005504,0.003296,-0.413019,-0.048395,0.909436,0.011347,0.000696,-0.002285327769.42,-2.715376,0.048341,0.745767,0.00285,0.005506,0.003287,-0.412946,-0.048322,0.909473,0.009808,0.002088,-0.002002327769.43,-2.715453,0.048271,0.745737,0.001782,0.007647,0.004339,-0.412878,-0.048252,0.909508,0.010412,0.002308,-0.00341327769.44,-2.715496,0.048175,0.745709,0.000715,0.00765,0.00433,-0.41284,-0.048157,0.90953,0.009825,0.004227,-0.00447327769.45,-2.715526,0.048103,0.745671,-0.001423,0.006589,0.004314,-0.412814,-0.048084,0.909545,0.008715,0.004078,-0.006133327769.46,-2.715555,0.048068,0.745601,-0.002521,0.004479,0.007515,-0.412788,-0.04805,0.909559,0.008613,0.002182,-0.007337327769.47,-2.715544,0.048057,0.745518,-0.003584,0.005548,0.007502,-0.412798,-0.048039,0.909555,0.006457,0.000797,-0.008081327769.49,-2.715418,0.048027,0.745343,0.000673,0.008755,0.010733,-0.412914,-0.048008,0.909504,0.003765,-0.00024,-0.006275327769.48,-2.715491,0.04806,0.745434,-0.00251,0.007677,0.007505,-0.412847,-0.048042,0.909532,0.005285,-0.000023,-0.008455327769.5,-2.715293,0.048012,0.745269,0.002838,0.013001,0.008603,-0.413028,-0.047993,0.909453,0.001255,-0.002422,-0.003706327769.51,-2.715145,0.047964,0.745187,-0.000364,0.01301,0.008575,-0.413164,-0.047946,0.909394,0.000353,0.000598,-0.00261327769.52,-2.714975,0.047941,0.745103,-0.002487,0.014076,0.007486,-0.413318,-0.047922,0.909325,-0.001095,0.000788,-0.000893327769.53,-2.714791,0.047986,0.745016,-0.004618,0.013009,0.006403,-0.413485,-0.047968,0.909247,-0.00134,-0.002157,-0.003973327769.54,-2.714591,0.048008,0.744958,-0.002343,0.015252,0.004347,-0.413666,-0.047989,0.909163,-0.000045,-0.000595,-0.006087327769.55,-2.714388,0.048014,0.744909,-0.000209,0.015246,0.004365,-0.413851,-0.047996,0.909079,0.000444,-0.000833,-0.007589327769.56,-2.714198,0.048041,0.744864,-0.000212,0.01418,0.004369,-0.414023,-0.048022,0.908999,0.000616,-0.001965,-0.006121327769.57,-2.714053,0.048025,0.744819,0.000829,0.008852,0.005462,-0.414155,-0.048007,0.908939,-0.000167,-0.000959,-0.004978327769.58,-2.713969,0.047984,0.744781,0.00296,0.00778,0.005483,-0.414232,-0.047966,0.908906,0.002108,-0.000252,-0.005174327769.59,-2.713866,0.047914,0.744763,0.005106,0.006695,0.00337,-0.414327,-0.047896,0.908867,0.001394,0.001021,-0.007103327769.6,-2.713781,0.047781,0.744739,0.001901,0.005638,0.003345,-0.414408,-0.047763,0.908837,0.000009,0.006183,-0.004723327769.61,-2.713673,0.047675,0.744736,-0.000206,0.004551,-0.00094,-0.414507,-0.047657,0.908797,-0.001264,0.00629,-0.005919327769.62,-2.713544,0.047641,0.744747,0.001932,0.005612,-0.000925,-0.414626,-0.047623,0.908745,-0.000947,0.001801,-0.008278327769.63,-2.71347,0.04768,0.744771,0.001929,0.002406,-0.001983,-0.414692,-0.047662,0.908713,0.000706,-0.002509,-0.007163327769.64,-2.713415,0.047766,0.744784,0.002973,0.000284,0.000168,-0.41474,-0.047748,0.908686,0.000449,-0.006253,-0.007685327769.65,-2.713416,0.047824,0.74477,0.002942,-0.001828,0.003377,-0.414738,-0.047806,0.908684,0.001957,-0.005386,-0.005898327769.66,-2.713437,0.047875,0.744746,0.00187,-0.000752,0.004432,-0.414718,-0.047857,0.908691,0.001769,-0.005198,-0.001724327769.67,-2.71346,0.04793,0.744699,-0.000258,0.001386,0.004407,-0.414696,-0.047911,0.908698,0.003151,-0.004579,-0.001349327769.68,-2.713433,0.047927,0.744649,0.001876,0.005659,0.006548,-0.41472,-0.047909,0.908687,0.002748,-0.001606,-0.002925327769.69,-2.713426,0.047929,0.744611,0.001895,0.008851,0.00547,-0.414727,-0.047911,0.908684,0.006616,-0.002138,-0.004219327769.7,-2.713393,0.047875,0.74457,0.004029,0.010984,0.00655,-0.414758,-0.047857,0.908672,0.007241,-0.00001,-0.004559327769.71,-2.713389,0.047801,0.744533,0.005082,0.006715,0.006572,-0.414763,-0.047783,0.908674,0.006743,0.000557,-0.003294327769.72,-2.713382,0.04772,0.744489,0.002944,0.005654,0.006557,-0.414771,-0.047702,0.908675,0.004462,0.001834,-0.003111327769.73,-2.713342,0.047642,0.744449,0.00294,0.004588,0.00656,-0.414809,-0.047624,0.908662,0.004088,0.001588,-0.006974327769.74,-2.713273,0.047549,0.744393,0.000817,0.007793,0.006532,-0.414874,-0.047531,0.908637,0.003039,0.003754,-0.006552327769.76,-2.713062,0.047361,0.744302,0.000833,0.009919,0.005458,-0.415069,-0.047343,0.908557,0.001724,0.003871,-0.00629327769.75,-2.713176,0.04745,0.744344,0.000825,0.007786,0.005465,-0.414963,-0.047432,0.908601,0.002091,0.003975,-0.006746327769.77,-2.712979,0.047314,0.744268,0.000844,0.010979,0.004388,-0.415145,-0.047296,0.908525,0.005111,0.001611,-0.006258327769.78,-2.712905,0.047268,0.744245,-0.000215,0.008836,0.002249,-0.415213,-0.04725,0.908496,0.005042,0.002252,-0.007221327769.79,-2.712837,0.047247,0.744238,0.001928,0.008823,0.0012,-0.415275,-0.047229,0.908469,0.005073,0.000964,-0.008857327769.8,-2.712831,0.047241,0.744233,0.000845,0.0067,0.002265,-0.415281,-0.047223,0.908466,0.0054,-0.000873,-0.003163327769.81,-2.712833,0.047198,0.744231,0.001924,0.005617,0.000142,-0.41528,-0.04718,0.908469,0.005841,0.00177,-0.00434327769.82,-2.712822,0.047152,0.744243,0.00194,0.007742,-0.000932,-0.415291,-0.047135,0.908467,0.004906,0.002213,-0.001317327769.83,-2.712782,0.047122,0.744273,0.000903,0.011997,-0.003089,-0.415328,-0.047105,0.908451,0.005156,0.002107,-0.002308327769.84,-2.712704,0.047078,0.744329,0.003166,0.015301,-0.004083,-0.4154,-0.047061,0.908421,0.005091,0.002551,-0.0024327769.85,-2.712604,0.047031,0.744387,0.004241,0.015291,-0.005141,-0.415491,-0.047014,0.908381,0.004786,0.002183,-0.003856327769.86,-2.712472,0.047026,0.74444,0.004225,0.015304,-0.003006,-0.415611,-0.047009,0.908327,0.003456,-0.000431,-0.004732327769.87,-2.712368,0.047043,0.744487,0.005278,0.011036,-0.002984,-0.415705,-0.047025,0.908283,0.003153,-0.002505,-0.00542327769.88,-2.71222,0.047071,0.744503,0.003104,0.008936,0.001274,-0.415839,-0.047054,0.90822,0.000495,-0.003193,-0.008623327769.89,-2.712115,0.047081,0.744487,-0.000109,0.007885,0.002317,-0.415935,-0.047064,0.908176,0.000804,-0.001017,-0.005359327769.9,-2.711881,0.04713,0.744437,-0.002267,0.005773,0.00444,-0.416146,-0.047113,0.908077,-0.001487,-0.001242,-0.008617327769.91,-2.711763,0.04714,0.744384,-0.001204,0.004704,0.004453,-0.416253,-0.047122,0.908027,-0.000129,-0.000775,-0.008766327769.92,-2.711688,0.047133,0.744335,-0.002271,0.004707,0.004443,-0.416321,-0.047115,0.907996,0.001328,0.000576,-0.00727327769.93,-2.71163,0.047135,0.744301,-0.000132,0.003628,0.003398,-0.416374,-0.047117,0.907972,0.000678,-0.000399,-0.004362327769.94,-2.7116,0.047164,0.744284,0.002006,0.002549,0.002352,-0.416401,-0.047147,0.907958,0.001316,-0.002719,-0.002715327769.95,-2.711595,0.047153,0.744255,0.000927,0.003632,0.004474,-0.416406,-0.047135,0.907956,0.002999,-0.00093,-0.002652327769.96,-2.711544,0.04715,0.744239,0.003088,0.008951,0.003409,-0.416451,-0.047133,0.907935,0.002252,-0.002291,-0.000694327769.97,-2.711471,0.047086,0.744212,0.004148,0.008954,0.004486,-0.416519,-0.047068,0.907908,0.002167,0.001155,-0.001444327769.98,-2.71143,0.047013,0.744207,0.006302,0.010001,0.002367,-0.416557,-0.046996,0.907894,0.004906,0.000624,-0.003704327769.99,-2.711349,0.046918,0.744229,0.007374,0.006786,0.00025,-0.416633,-0.0469,0.907864,0.003684,0.002192,-0.007794327770,-2.711283,0.046795,0.744263,0.004172,0.002516,-0.0019,-0.416695,-0.046778,0.907842,0.001778,0.004893,-0.008413327770.01,-2.711271,0.046761,0.744286,0.002081,-0.000594,-0.000806,-0.416708,-0.046744,0.907838,0.002798,0.001364,-0.008165327770.02,-2.711256,0.046746,0.744314,0.001037,0.001528,-0.002957,-0.416721,-0.046729,0.907833,0.003635,0.001074,-0.008037327770.03,-2.711241,0.046792,0.744345,0.002093,0.000466,-0.001877,-0.416734,-0.046775,0.907824,0.002671,-0.002252,-0.006717327770.04,-2.71127,0.046804,0.744367,0.0021,0.002598,-0.001883,-0.416707,-0.046787,0.907836,0.005681,-0.001095,-0.006987327770.05,-2.711351,0.046821,0.744391,0.002081,-0.000595,-0.000806,-0.416633,-0.046804,0.907869,0.00695,-0.002208,-0.003786327770.06,-2.711409,0.046789,0.744398,0.002084,0.002611,0.000252,-0.416582,-0.046771,0.907894,0.007188,0.000644,-0.004589327770.07,-2.711423,0.046787,0.744397,0.00208,0.003684,0.001316,-0.416569,-0.04677,0.9079,0.004673,-0.001097,-0.003725327770.08,-2.711409,0.046757,0.74439,-0.000035,0.006881,0.00022,-0.416582,-0.04674,0.907896,0.005297,0.001452,-0.004392327770.09,-2.711394,0.046775,0.744391,0.002106,0.011147,0.001294,-0.416595,-0.046758,0.907889,0.00711,-0.001521,-0.003256327770.1,-2.711366,0.046749,0.744406,0.003185,0.012204,0.000232,-0.416621,-0.046732,0.907878,0.007151,0.000086,-0.00381327770.11,-2.711306,0.046702,0.744421,0.003182,0.011137,0.000236,-0.416677,-0.046685,0.907855,0.004964,0.001015,-0.004428327770.12,-2.711222,0.046602,0.744439,0.004253,0.0122,0.000242,-0.416755,-0.046585,0.907825,0.005027,0.003891,-0.005618327770.13,-2.711138,0.046587,0.744441,0.002103,0.01008,0.001297,-0.416832,-0.04657,0.90779,0.002708,-0.000229,-0.002852327770.14,-2.710997,0.046564,0.744435,0.002092,0.006881,0.001307,-0.41696,-0.046547,0.907732,-0.000963,0.00016,-0.006564327770.15,-2.710852,0.046566,0.744409,-0.003249,0.00583,0.001263,-0.417091,-0.046549,0.907672,-0.002266,0.001215,-0.005694327770.16,-2.710763,0.0466,0.744383,-0.003206,0.005902,0.002375,-0.417172,-0.046583,0.907633,0.00169,-0.000261,-0.007868327770.17,-2.7107,0.046654,0.744371,-0.002131,0.003754,0.000256,-0.417228,-0.046637,0.907604,0.001579,-0.00181,-0.006207327770.18,-2.710636,0.046707,0.744356,-0.001068,0.004824,0.001329,-0.417284,-0.04669,0.907576,0.001925,-0.002199,-0.006239327770.19,-2.710594,0.04675,0.744352,0.000015,0.004808,-0.000797,-0.417322,-0.046733,0.907556,0.003748,-0.001973,-0.006525327770.2,-2.710522,0.046784,0.744353,0.003205,0.005879,0.001363,-0.417386,-0.046767,0.907525,0.003522,-0.002885,-0.009499327770.21,-2.710502,0.046797,0.744335,0.001036,0.000566,0.003496,-0.417405,-0.04678,0.907516,0.003068,-0.00156,-0.007171327770.22,-2.710557,0.04674,0.744317,0.003171,0.00056,0.003515,-0.417356,-0.046723,0.907541,0.004758,0.001252,-0.002359327770.23,-2.710551,0.046671,0.744306,0.001067,0.002678,0.000287,-0.417363,-0.046654,0.907542,0.002598,0.003243,-0.00265327770.24,-2.710496,0.046678,0.744299,-0.004247,0.004813,-0.001902,-0.417412,-0.046661,0.907519,0.000466,0.001678,-0.003359327770.25,-2.710434,0.046772,0.744284,-0.003187,0.006956,0.000237,-0.417466,-0.046755,0.907489,0.003267,-0.002821,-0.008166327770.26,-2.710392,0.04678,0.744295,0.003236,0.01013,-0.000785,-0.417504,-0.046763,0.907471,0.007867,-0.000722,-0.009522327770.27,-2.710359,0.046738,0.744312,0.006411,0.006935,0.001388,-0.417535,-0.046721,0.907459,0.006036,-0.00023,-0.005878327770.28,-2.710376,0.04665,0.744312,0.003179,0.000553,0.002447,-0.417522,-0.046633,0.90747,0.003505,0.002199,-0.001433327770.29,-2.710386,0.046582,0.74429,0.002104,0.000562,0.003505,-0.417514,-0.046565,0.907477,0.000995,0.002085,-0.000586327770.3,-2.710357,0.046557,0.744254,-0.003217,0.002703,0.002385,-0.417541,-0.046541,0.907465,0.000869,0.002015,-0.002711327770.31,-2.710326,0.046561,0.744224,-0.001079,0.003763,0.0024,-0.417569,-0.046544,0.907453,0.002362,0.0006,-0.004666327770.32,-2.710302,0.046618,0.744198,-0.002105,0.001698,0.002443,-0.417589,-0.046601,0.90744,0.003496,-0.002364,-0.007004327770.33,-2.710283,0.046608,0.744165,-0.001041,0.002769,0.003517,-0.417607,-0.046592,0.907432,0.003972,0.001075,-0.007194327770.34,-2.710254,0.046646,0.744147,0.000049,0.004885,0.001384,-0.417632,-0.046629,0.907419,0.005065,-0.002046,-0.007257327770.35,-2.710278,0.04662,0.744146,0.001128,0.005941,0.000323,-0.417612,-0.046603,0.90743,0.007669,0.001407,-0.005742327770.36,-2.710269,0.046625,0.74415,0.001128,0.005941,0.000323,-0.417619,-0.046608,0.907426,0.006181,-0.000618,-0.00554327770.37,-2.710257,0.046591,0.744179,0.002211,0.003785,-0.002865,-0.417631,-0.046574,0.907422,0.005461,0.002125,-0.007673327770.38,-2.710241,0.046555,0.744223,0.003298,0.006974,-0.003932,-0.417646,-0.046538,0.907417,0.005186,0.001815,-0.00544327770.39,-2.710238,0.046542,0.744281,0.002246,0.006964,-0.006077,-0.417649,-0.046525,0.907417,0.005951,0.001115,-0.003806327770.4,-2.710194,0.046541,0.744337,0.001178,0.006967,-0.006086,-0.417689,-0.046524,0.907398,0.003871,0.001083,-0.005253327770.42,-2.710038,0.046616,0.74447,0.001186,0.009099,-0.006093,-0.417829,-0.046599,0.90733,0.002164,-0.002076,-0.004681327770.41,-2.710121,0.046567,0.744408,0.00225,0.005891,-0.007141,-0.417755,-0.04655,0.907366,0.001495,-0.000477,-0.004992327770.43,-2.70993,0.046641,0.744514,0.001163,0.00698,-0.003951,-0.417926,-0.046624,0.907284,0.000278,-0.000816,-0.00404327770.44,-2.709852,0.046642,0.744536,0.002203,0.005931,-0.000736,-0.417998,-0.046625,0.907251,0.00125,-0.000235,-0.005578327770.45,-2.709758,0.046646,0.744534,0.003259,0.007008,0.001406,-0.418083,-0.046629,0.907211,-0.000145,-0.001207,-0.0038327770.46,-2.709683,0.046672,0.744528,0.00006,0.005944,0.000313,-0.41815,-0.046655,0.907179,0.000334,-0.001944,-0.002897327770.47,-2.709604,0.046698,0.74451,-0.001019,0.004887,0.001375,-0.418221,-0.046682,0.907145,0.000359,-0.001201,-0.004084327770.48,-2.709563,0.046707,0.744496,-0.002082,0.003817,0.000301,-0.418258,-0.04669,0.907128,0.001418,0.000318,-0.00338327770.49,-2.709489,0.046742,0.744476,-0.000972,0.005982,0.001413,-0.418324,-0.046725,0.907095,0.000447,-0.001463,-0.003607327770.5,-2.709432,0.046749,0.744448,-0.00098,0.005989,0.00248,-0.418376,-0.046732,0.907071,0.002711,0.000056,-0.006039327770.51,-2.709401,0.046771,0.744438,0.000095,0.00384,0.000361,-0.418404,-0.046754,0.907057,0.003945,-0.000914,-0.006758327770.52,-2.709354,0.046778,0.74443,0.000091,0.004913,0.001425,-0.418447,-0.046761,0.907037,0.003148,-0.000297,-0.007211327770.53,-2.709312,0.046791,0.744441,0.0001,0.000628,-0.001765,-0.418484,-0.046774,0.907019,0.002453,-0.000117,-0.008154327770.54,-2.709304,0.046767,0.744457,-0.000971,-0.000435,-0.001771,-0.418492,-0.04675,0.907016,0.00301,0.002225,-0.008381327770.55,-2.709335,0.046771,0.744472,-0.002046,-0.002565,-0.001774,-0.418464,-0.046754,0.907029,0.004477,0.001588,-0.008287327770.56,-2.709397,0.046826,0.744483,-0.003117,-0.005768,-0.002841,-0.418406,-0.046809,0.907053,0.003611,-0.000279,-0.00654327770.57,-2.709509,0.046887,0.74451,-0.005236,-0.005776,-0.004995,-0.418304,-0.04687,0.907097,0.005279,-0.000264,-0.004036327770.58,-2.709603,0.047,0.744539,-0.002042,-0.005778,-0.0039,-0.418216,-0.046982,0.907132,0.003406,-0.003738,-0.002362327770.59,-2.70969,0.047074,0.744553,-0.002035,0.000633,-0.001784,-0.418136,-0.047057,0.907165,0.005203,-0.002305,-0.00125327770.6,-2.70972,0.047096,0.744565,0.000099,0.002766,-0.000704,-0.418108,-0.047079,0.907177,0.004488,-0.00062,-0.001537327770.61,-2.709708,0.047136,0.744574,-0.000946,0.007028,-0.001794,-0.418118,-0.047119,0.90717,0.003048,-0.001511,0.000057327770.62,-2.709723,0.047123,0.744586,0.001189,0.009161,-0.000714,-0.418105,-0.047106,0.907177,0.006697,0.001025,-0.000271327770.63,-2.709695,0.047124,0.744603,0.001204,0.011286,-0.001788,-0.41813,-0.047107,0.907165,0.007119,0.000277,-0.005081327770.64,-2.709636,0.047084,0.744632,0.00125,0.012387,-0.002826,-0.418184,-0.047066,0.907142,0.006563,0.002617,-0.004554327770.65,-2.709565,0.047117,0.74467,0.002325,0.012377,-0.003884,-0.418248,-0.047099,0.907111,0.005727,-0.001454,-0.005225327770.66,-2.709474,0.047084,0.744728,0.0034,0.012367,-0.004942,-0.418331,-0.047066,0.907074,0.004482,0.001946,-0.005493327770.67,-2.709383,0.047076,0.744771,0.002313,0.011317,-0.002813,-0.418414,-0.047058,0.907036,0.004458,0.000122,-0.006097327770.68,-2.709289,0.047043,0.744809,0.001242,0.010254,-0.002819,-0.4185,-0.047026,0.906998,0.002882,0.002104,-0.005387327770.69,-2.709186,0.047036,0.744828,-0.000904,0.0092,-0.001767,-0.418594,-0.047018,0.906956,0.001892,0.001455,-0.005009327770.7,-2.709048,0.047075,0.744843,-0.001967,0.00813,-0.002841,-0.418718,-0.047057,0.906896,-0.00067,-0.001023,-0.005819327770.71,-2.708954,0.047116,0.744846,0.000137,0.006012,0.000387,-0.418803,-0.047098,0.906855,0.001337,-0.00173,-0.007044327770.72,-2.708886,0.047137,0.744832,0.000121,0.003886,0.001461,-0.418864,-0.04712,0.906826,0.001399,-0.001434,-0.00555327770.73,-2.708782,0.047195,0.74482,-0.000935,0.004949,0.000381,-0.418957,-0.047177,0.90678,-0.001225,-0.003223,-0.004894327770.74,-2.708688,0.047261,0.744807,0.000125,0.004953,0.001458,-0.419041,-0.047243,0.906737,-0.000637,-0.004454,-0.004912327770.75,-2.708596,0.047236,0.744803,0.002259,0.004947,0.001476,-0.419124,-0.047219,0.9067,-0.000187,-0.000145,-0.006187327770.76,-2.708537,0.047246,0.744804,0.002267,0.004941,0.000409,-0.419178,-0.047228,0.906675,0.001423,-0.001798,-0.004484327770.77,-2.708467,0.047211,0.744806,0.000136,0.003874,-0.000674,-0.419242,-0.047193,0.906647,0.000404,0.001997,-0.005295327770.78,-2.708434,0.047191,0.744818,0.002264,0.001735,-0.000649,-0.419272,-0.047173,0.906634,0.001761,0.00071,-0.006091327770.79,-2.708412,0.047209,0.744819,0.001181,-0.000387,0.000415,-0.419292,-0.047192,0.906624,0.002239,-0.001468,-0.00779327770.8,-2.708424,0.047159,0.744822,0.000149,-0.001423,-0.000626,-0.419282,-0.047142,0.906631,0.003404,0.002998,-0.006973327770.81,-2.708436,0.04715,0.744825,0.001209,-0.003559,-0.00061,-0.419272,-0.047133,0.906637,0.002081,0.000548,-0.007055327770.82,-2.708472,0.047153,0.744814,0.000127,-0.003543,0.001516,-0.419239,-0.047135,0.906652,0.002765,-0.000579,-0.005773327770.83,-2.708557,0.047139,0.744809,0.000134,-0.00141,0.001509,-0.419162,-0.047122,0.906688,0.004963,0.000644,-0.001536327770.84,-2.708594,0.047119,0.744805,-0.001985,-0.001418,-0.000644,-0.419129,-0.047101,0.906704,0.003372,0.002301,-0.004711327770.85,-2.708656,0.047125,0.744805,-0.000914,-0.000355,-0.000638,-0.419073,-0.047107,0.90673,0.005575,0.000461,-0.004615327770.86,-2.708698,0.047154,0.744815,-0.000906,-0.000361,-0.001706,-0.419034,-0.047136,0.906746,0.003796,-0.00102,-0.002861327770.87,-2.708733,0.047155,0.74483,-0.000906,-0.000362,-0.001706,-0.419002,-0.047138,0.906761,0.003811,0.000797,-0.003974327770.88,-2.708779,0.047163,0.744845,-0.000902,0.000705,-0.001709,-0.418961,-0.047146,0.90678,0.005798,0.000744,-0.005199327770.89,-2.708802,0.047172,0.744849,0.001236,0.003904,-0.000633,-0.418939,-0.047155,0.906789,0.005792,-0.000285,-0.004476327770.9,-2.708798,0.047203,0.74485,0.002299,0.007113,0.001502,-0.418942,-0.047185,0.906786,0.005993,-0.002757,-0.004076327770.91,-2.708742,0.047213,0.744856,0.003392,0.012435,0.000428,-0.418993,-0.047195,0.906762,0.004793,-0.002167,-0.002816327770.92,-2.708673,0.047154,0.744889,0.005535,0.010283,-0.001682,-0.419057,-0.047137,0.906736,0.004415,0.001315,-0.004178327770.93,-2.708624,0.04713,0.744945,0.007682,0.009197,-0.003796,-0.419102,-0.047112,0.906716,0.00536,-0.001441,-0.004983327770.94,-2.70861,0.047089,0.745009,0.006599,0.004935,-0.003792,-0.419115,-0.047071,0.906712,0.005556,0.000211,-0.006535327770.96,-2.708567,0.047082,0.745096,0.000191,0.003886,-0.003845,-0.419154,-0.047065,0.906694,0.003031,0.000205,-0.005266327770.95,-2.708585,0.047071,0.745058,0.002315,0.00282,-0.002756,-0.419138,-0.047054,0.906702,0.003214,0.000454,-0.006098327770.97,-2.70855,0.047118,0.745134,-0.000845,0.00284,-0.004891,-0.419169,-0.0471,0.906686,0.003275,-0.000522,-0.005731327770.98,-2.708494,0.047161,0.745162,0.001285,0.006046,-0.002746,-0.419219,-0.047144,0.90666,0.002837,-0.001944,-0.007124327770.99,-2.708462,0.04718,0.745192,0.003409,0.004981,-0.001657,-0.419248,-0.047162,0.906646,0.004224,-0.002215,-0.006027327771,-2.708415,0.047184,0.745213,0.003412,0.008186,-0.000599,-0.41929,-0.047167,0.906626,0.004877,-0.0016,-0.006449327771.01,-2.70838,0.047157,0.745247,0.001296,0.009245,-0.002756,-0.419322,-0.04714,0.906613,0.005214,0.000875,-0.004727327771.02,-2.708335,0.047157,0.745272,0.001296,0.009245,-0.002756,-0.419363,-0.04714,0.906594,0.005483,0.000494,-0.00512327771.03,-2.70828,0.047164,0.745305,0.005554,0.008173,-0.001648,-0.419413,-0.047147,0.90657,0.004984,-0.001773,-0.006439327771.04,-2.708256,0.047149,0.745331,0.003412,0.008186,-0.000599,-0.419434,-0.047131,0.906561,0.005448,-0.000324,-0.005103327771.05,-2.708193,0.047141,0.745357,0.002356,0.009248,-0.001679,-0.419492,-0.047124,0.906535,0.003171,-0.000193,-0.004283327771.06,-2.708124,0.047166,0.745374,0.000217,0.008188,-0.001695,-0.419554,-0.047148,0.906505,0.002668,-0.000917,-0.003963327771.07,-2.70802,0.047154,0.745392,0.001292,0.010317,-0.001692,-0.419648,-0.047137,0.906462,0.002153,0.000994,-0.005568327771.08,-2.70795,0.047195,0.745417,0.001277,0.006052,-0.001679,-0.419711,-0.047177,0.906431,0.00275,-0.002261,-0.005903327771.09,-2.707881,0.047212,0.745432,-0.000854,0.004985,-0.002762,-0.419773,-0.047194,0.906401,0.001271,-0.000489,-0.004698327771.1,-2.70785,0.04723,0.745451,0.000202,0.003922,-0.001682,-0.419801,-0.047212,0.906387,0.001924,-0.000883,-0.003067327771.11,-2.707823,0.047258,0.745458,0.000194,0.003929,-0.000614,-0.419825,-0.04724,0.906375,0.002299,-0.00139,-0.004016327771.12,-2.707761,0.047299,0.745462,0.001272,0.00288,0.000489,-0.41988,-0.047281,0.906347,0.001881,-0.00202,-0.007925327771.13,-2.707705,0.047322,0.745453,0.000204,0.002883,0.00048,-0.419931,-0.047305,0.906322,0.001962,-0.001417,-0.00732327771.14,-2.707685,0.047337,0.745449,-0.000871,0.000753,0.000477,-0.419949,-0.04732,0.906313,0.002102,-0.000807,-0.006228327771.15,-2.707661,0.047345,0.745438,-0.000867,0.001819,0.000473,-0.41997,-0.047327,0.906303,0.002551,-0.000219,-0.006233327771.16,-2.70765,0.047333,0.745441,0.001264,0.000747,0.000495,-0.419981,-0.047315,0.906299,0.002836,0.000669,-0.006656327771.17,-2.70764,0.047342,0.745449,0.002324,-0.001388,0.000511,-0.419989,-0.047324,0.906294,0.003409,-0.001016,-0.009245327771.18,-2.707659,0.047335,0.745456,0.001264,-0.001392,-0.000566,-0.419973,-0.047317,0.906302,0.003011,-0.000214,-0.006629327771.19,-2.707706,0.047322,0.745475,0.002328,-0.002461,-0.000554,-0.41993,-0.047304,0.906323,0.00364,0.000307,-0.004086327771.2,-2.707734,0.047326,0.745473,0.001249,-0.001379,0.001569,-0.419904,-0.047309,0.906335,0.001783,-0.001352,-0.002526327771.21,-2.707744,0.047308,0.745471,0.001256,0.000754,0.001563,-0.419896,-0.047291,0.906339,0.003193,0.00034,-0.003675327771.22,-2.70773,0.047296,0.745457,0.001264,0.002886,0.001556,-0.419908,-0.047279,0.906334,0.002748,-0.000252,-0.004402327771.23,-2.707714,0.047274,0.745445,0.00126,0.003959,0.002621,-0.419924,-0.047256,0.906328,0.003862,0.000457,-0.005694327771.24,-2.707708,0.047267,0.745433,0.00126,0.003959,0.002621,-0.419929,-0.047249,0.906326,0.003883,-0.000557,-0.003479327771.25,-2.707688,0.047255,0.745418,0.002331,0.005022,0.002627,-0.419947,-0.047237,0.906318,0.004664,-0.000554,-0.006431327771.26,-2.707673,0.047248,0.745405,0.002319,0.003963,0.003698,-0.419961,-0.047231,0.906312,0.005044,-0.00117,-0.006502327771.27,-2.707688,0.047198,0.745397,0.004465,0.007155,0.003707,-0.419948,-0.04718,0.906321,0.006359,0.000305,-0.002894327771.28,-2.707652,0.047136,0.745375,0.002355,0.008233,0.003709,-0.419983,-0.047119,0.906308,0.004776,0.001037,-0.004407327771.29,-2.707574,0.0471,0.745364,0.003449,0.011416,0.001573,-0.420053,-0.047083,0.906277,0.003199,0.000147,-0.004498327771.3,-2.707494,0.047049,0.745357,0.004513,0.012486,0.002647,-0.420127,-0.047032,0.906246,0.004234,0.000675,-0.001888327771.32,-2.707301,0.047024,0.745387,0.005595,0.014608,0.001582,-0.420303,-0.047006,0.906165,0.003448,-0.000967,-0.003135327771.31,-2.707412,0.047055,0.745374,0.004532,0.013538,0.000508,-0.420202,-0.047037,0.906211,0.004644,-0.002782,-0.001761327771.33,-2.707163,0.047035,0.745385,0.005583,0.015688,0.003714,-0.420428,-0.047018,0.906107,0.003298,-0.00384,-0.004297327771.34,-2.707014,0.047026,0.745367,0.007698,0.014629,0.005871,-0.420563,-0.047009,0.906045,0.002868,-0.004428,-0.005425327771.35,-2.706804,0.047003,0.745311,0.006607,0.016792,0.010126,-0.420754,-0.046986,0.905957,0.000603,-0.004177,-0.006757327771.36,-2.706625,0.046973,0.745231,0.006595,0.017871,0.012258,-0.420917,-0.046956,0.905883,0.002566,-0.004283,-0.004058327771.37,-2.706429,0.046957,0.745131,0.008721,0.02429,0.016528,-0.421095,-0.04694,0.905801,0.005857,-0.007259,-0.006601327771.38,-2.706178,0.046884,0.745007,0.010847,0.028569,0.019736,-0.421323,-0.046867,0.905699,0.004178,-0.004937,-0.005201327771.39,-2.705912,0.046797,0.744858,0.009764,0.028585,0.021862,-0.421566,-0.04678,0.90559,0.004543,-0.005268,-0.004116327771.4,-2.705648,0.046679,0.744691,0.011879,0.029665,0.02508,-0.421807,-0.046662,0.905484,0.00393,-0.005737,-0.002423327771.41,-2.705363,0.046563,0.744515,0.012934,0.028603,0.02616,-0.422068,-0.046546,0.905369,0.00271,-0.006432,-0.003452327771.42,-2.705066,0.046391,0.744311,0.009705,0.023287,0.027216,-0.42234,-0.046374,0.90525,-0.001488,-0.002149,-0.002693327771.43,-2.70472,0.046251,0.744101,0.007582,0.024353,0.026126,-0.422656,-0.046235,0.90511,-0.004316,-0.002791,-0.004186327771.44,-2.704383,0.046104,0.743897,0.009709,0.022215,0.026151,-0.422964,-0.046088,0.904974,-0.003306,-0.003076,-0.006674327771.45,-2.704108,0.045951,0.743722,0.011859,0.016862,0.024073,-0.423215,-0.045935,0.904864,-0.001208,-0.002527,-0.008654327771.46,-2.703925,0.045691,0.743566,0.011845,0.008319,0.021963,-0.423386,-0.045676,0.904797,0.000443,0.003744,-0.010739327771.47,-2.703871,0.045444,0.743462,0.009719,-0.002378,0.015571,-0.42344,-0.045429,0.904785,0.002068,0.004779,-0.010879327771.48,-2.703935,0.045194,0.743415,0.01083,-0.003488,0.009177,-0.423386,-0.045178,0.904822,0.006302,0.006421,-0.008277327771.49,-2.704046,0.04494,0.743422,0.01088,-0.002462,0.002768,-0.423291,-0.044925,0.904879,0.008237,0.008029,-0.006488327771.5,-2.704173,0.044661,0.743471,0.009852,0.001786,-0.000456,-0.423181,-0.044646,0.904944,0.010141,0.011199,-0.003257327771.51,-2.704272,0.044384,0.743562,0.006712,0.00602,-0.006902,-0.423097,-0.04437,0.904998,0.010209,0.013959,-0.002379327771.52,-2.7044,0.044223,0.74368,0.000355,0.008136,-0.012303,-0.422984,-0.044208,0.905058,0.01507,0.011768,-0.0045327771.53,-2.704532,0.044171,0.74381,-0.002828,0.009196,-0.014469,-0.422865,-0.044156,0.905116,0.017912,0.008573,-0.008082327771.54,-2.704683,0.04417,0.743936,-0.003894,0.007059,-0.015539,-0.422728,-0.044156,0.90518,0.019912,0.006283,-0.011992327771.55,-2.70488,0.044205,0.744081,-0.0007,0.007055,-0.014444,-0.422549,-0.044191,0.905262,0.022494,0.003404,-0.012913327771.56,-2.705047,0.044249,0.744209,0.001405,0.004936,-0.011216,-0.422398,-0.044234,0.90533,0.018483,0.000243,-0.010525327771.57,-2.705115,0.044254,0.744302,0.002445,0.006025,-0.006939,-0.422336,-0.044239,0.905359,0.009632,0.000889,-0.004038327771.58,-2.705111,0.0443,0.74435,-0.002892,0.008179,-0.005924,-0.422339,-0.044285,0.905356,0.002737,-0.000332,0.003427327771.59,-2.704971,0.044359,0.744382,-0.006057,0.018851,-0.005984,-0.422465,-0.044344,0.905294,-0.000844,0.000765,0.005564327771.6,-2.704724,0.044458,0.744412,-0.008148,0.025241,-0.007071,-0.422686,-0.044443,0.905186,-0.003522,-0.000265,0.006161327771.61,-2.704374,0.044561,0.74446,-0.005987,0.028421,-0.009197,-0.423001,-0.044547,0.905034,-0.004047,-0.000452,-0.001256327771.62,-2.70397,0.044654,0.744526,-0.002773,0.029472,-0.01024,-0.423365,-0.044639,0.904859,-0.004415,-0.000817,-0.005231327771.63,-2.703606,0.044668,0.744611,-0.003848,0.025204,-0.011304,-0.423694,-0.044653,0.904704,-0.000729,0.003988,-0.011958327771.64,-2.703289,0.044711,0.744682,-0.003893,0.014548,-0.010204,-0.42398,-0.044696,0.904568,-0.001496,0.00249,-0.017117327771.65,-2.703067,0.0448,0.744755,-0.002859,0.004949,-0.010166,-0.424179,-0.044785,0.90447,-0.001862,-0.000518,-0.016516327771.66,-2.702934,0.044911,0.744828,-0.000747,0.000685,-0.009067,-0.424297,-0.044896,0.904409,-0.000858,-0.003261,-0.014593327771.68,-2.702788,0.045192,0.744888,-0.001884,-0.00353,-0.001591,-0.424424,-0.045177,0.904336,-0.00592,-0.007741,-0.001733327771.67,-2.702843,0.045033,0.744872,-0.001857,-0.004623,-0.005858,-0.424377,-0.045017,0.904366,-0.005188,-0.004406,-0.00689327771.69,-2.702676,0.045366,0.744861,-0.00189,0.003962,0.002657,-0.424522,-0.045351,0.904281,-0.006982,-0.009978,0.001175327771.7,-2.702527,0.045575,0.744813,0.001299,0.007172,0.005878,-0.424652,-0.045559,0.90421,-0.0056,-0.014408,0.000743327771.71,-2.702382,0.045744,0.744757,0.005552,0.009314,0.009112,-0.424781,-0.045728,0.904141,-0.004556,-0.014879,0.002766327771.72,-2.702218,0.045829,0.744693,0.007682,0.010381,0.010194,-0.424927,-0.045813,0.904068,-0.004165,-0.011728,0.00177327771.73,-2.702045,0.045767,0.744655,0.010899,0.012498,0.009148,-0.425085,-0.045751,0.903996,-0.001917,-0.005214,-0.002294327771.74,-2.701883,0.045613,0.744622,0.00663,0.010371,0.00805,-0.425234,-0.045597,0.903934,-0.000242,0.00272,-0.006504327771.75,-2.701704,0.045376,0.74457,0.000234,0.008243,0.005865,-0.4254,-0.04536,0.903868,-0.00032,0.011562,-0.011412327771.76,-2.701605,0.045175,0.74452,-0.006145,0.005027,0.002637,-0.425494,-0.045159,0.903834,0.003573,0.014062,-0.013194327771.77,-2.701655,0.044965,0.744505,-0.004001,0.000735,-0.000535,-0.425453,-0.04495,0.903864,0.010337,0.015409,-0.011789327771.78,-2.701846,0.044885,0.744502,-0.002952,-0.0046,-0.000509,-0.425282,-0.04487,0.903948,0.014805,0.007394,-0.010149327771.79,-2.70218,0.044838,0.744512,-0.000828,-0.005667,0.000581,-0.424981,-0.044823,0.904092,0.01896,0.00338,-0.002877327771.8,-2.702507,0.044897,0.744532,0.000251,-0.004612,-0.000481,-0.424684,-0.044882,0.904228,0.017015,-0.003564,0.001915327771.81,-2.702771,0.045005,0.744543,0.000268,0.002858,0.000564,-0.424443,-0.044989,0.904336,0.015065,-0.006204,0.005805327771.82,-2.702918,0.045062,0.74455,-0.001836,0.009254,-0.000542,-0.424309,-0.045047,0.904396,0.012367,-0.002195,0.004188327771.83,-2.70292,0.045129,0.744564,-0.001821,0.01138,-0.001616,-0.424306,-0.045114,0.904394,0.008306,-0.002616,-0.002325327771.84,-2.70284,0.045189,0.74458,-0.002874,0.013508,-0.002699,-0.424377,-0.045173,0.904358,0.004196,-0.001442,-0.001999327771.85,-2.702665,0.045211,0.744588,-0.002877,0.012442,-0.002696,-0.424535,-0.045195,0.904283,-0.000285,0.001463,-0.005586327771.86,-2.702288,0.045278,0.744584,-0.003952,0.010314,-0.002699,-0.424874,-0.045263,0.90412,-0.002723,0.000265,-0.011878327771.87,-2.702124,0.045327,0.744585,-0.006102,0.006055,-0.002705,-0.425022,-0.045311,0.904048,0.000065,0.001442,-0.012462327771.88,-2.701988,0.045371,0.744584,-0.006105,0.00285,-0.003763,-0.425144,-0.045356,0.903989,-0.000561,0.001944,-0.011624327771.89,-2.701997,0.045467,0.744618,-0.003962,-0.001441,-0.006934,-0.425134,-0.045451,0.903989,0.003259,-0.001424,-0.007062327771.9,-2.702032,0.045531,0.744647,-0.001847,-0.0025,-0.004777,-0.425101,-0.045515,0.904001,0.001761,-0.00136,-0.001779327771.91,-2.702155,0.045686,0.744686,0.000288,-0.002507,-0.004759,-0.424986,-0.04567,0.904047,0.005721,-0.007751,0.000692327771.92,-2.702219,0.045793,0.744748,0.004572,0.001747,-0.004735,-0.424926,-0.045777,0.90407,0.001602,-0.006957,0.005476327771.93,-2.702136,0.045809,0.744827,0.006736,0.010272,-0.004742,-0.425002,-0.045793,0.904034,-0.000871,-0.002914,0.00182327771.94,-2.702025,0.045845,0.744923,0.007818,0.010255,-0.006868,-0.425101,-0.045829,0.903985,-0.00068,-0.004968,-0.000344327771.95,-2.701853,0.045856,0.745025,0.011013,0.010254,-0.005772,-0.425256,-0.04584,0.903912,-0.003409,-0.004529,-0.003887327771.96,-2.701644,0.045881,0.745086,0.006697,0.006028,-0.001526,-0.425445,-0.045865,0.903822,-0.006104,-0.00487,-0.007597327771.97,-2.701471,0.045848,0.745091,0.0024,0.001768,0.001676,-0.425602,-0.045832,0.903749,-0.005947,-0.000097,-0.008455327771.98,-2.701329,0.045847,0.745053,-0.001877,0.001787,0.002706,-0.42573,-0.04583,0.903689,-0.00414,-0.000037,-0.008303327771.99,-2.701264,0.045875,0.744997,-0.00402,0.0018,0.003755,-0.425789,-0.045859,0.90366,0.000847,-0.000573,-0.008045327772.01,-2.701445,0.04581,0.744966,0.005595,-0.000374,0.00171,-0.425626,-0.045794,0.90374,0.009686,0.000888,-0.003074327772,-2.701322,0.045863,0.74497,0.000254,0.000715,0.002728,-0.425736,-0.045847,0.903685,0.008225,0.00123,-0.00746327772.02,-2.70158,0.04575,0.744998,0.007753,0.001739,-0.000413,-0.425505,-0.045734,0.9038,0.009108,0.000354,0.001764327772.03,-2.701706,0.045641,0.745054,0.01097,0.003856,-0.001459,-0.425394,-0.045625,0.903858,0.007761,0.001588,0.007046327772.04,-2.701798,0.045529,0.745119,0.009933,0.010249,-0.002555,-0.425313,-0.045513,0.903901,0.008488,0.001995,0.006743327772.05,-2.70177,0.04541,0.74518,0.007817,0.015586,-0.00259,-0.42534,-0.045395,0.903895,0.005555,0.002777,0.004385327772.06,-2.701687,0.045353,0.745237,0.006765,0.019854,-0.002612,-0.425416,-0.045337,0.903862,0.006471,0.000568,-0.000175327772.07,-2.701505,0.045357,0.745283,0.004637,0.021992,-0.002637,-0.42558,-0.045342,0.903784,0.004285,-0.002052,-0.005621327772.08,-2.701282,0.045385,0.745299,0.003545,0.018794,-0.000496,-0.425781,-0.04537,0.903688,0.002976,-0.003382,-0.010545327772.09,-2.701067,0.045394,0.745301,0.001388,0.014541,0.000566,-0.425976,-0.045378,0.903596,0.002819,-0.001359,-0.013444327772.1,-2.700905,0.045406,0.745299,0.002425,0.008147,0.001662,-0.426122,-0.045391,0.903526,0.002874,-0.001667,-0.014381327772.11,-2.700789,0.045405,0.745275,0.000267,0.003895,0.002724,-0.426227,-0.045389,0.903477,0.001529,-0.000448,-0.013004327772.12,-2.700736,0.045408,0.745249,0.001323,0.000693,0.002742,-0.426274,-0.045392,0.903454,0.001592,-0.001285,-0.009518327772.13,-2.700672,0.045441,0.745231,0.00132,-0.002512,0.001684,-0.426332,-0.045426,0.903425,-0.001662,-0.002975,-0.00807327772.14,-2.70063,0.045489,0.74522,0.002387,-0.002515,0.001693,-0.426369,-0.045474,0.903406,-0.002114,-0.004117,-0.005472327772.15,-2.700527,0.045503,0.745204,0.00133,0.000688,0.001675,-0.426462,-0.045487,0.903361,-0.004004,-0.002212,-0.005595327772.16,-2.700406,0.045553,0.745186,0.003461,0.001756,0.002757,-0.42657,-0.045537,0.903307,-0.004948,-0.005167,-0.005328327772.17,-2.700338,0.045545,0.745177,0.004517,-0.001446,0.002776,-0.426632,-0.045529,0.903279,-0.002628,-0.00249,-0.005131327772.18,-2.700292,0.045513,0.745178,0.006655,-0.000385,0.002792,-0.426673,-0.045497,0.903261,-0.000573,-0.002202,-0.004884327772.19,-2.700275,0.045476,0.745196,0.007723,-0.002527,0.00174,-0.426689,-0.04546,0.903255,-0.000892,-0.002559,-0.003383327772.2,-2.700294,0.045356,0.74521,0.008768,-0.006789,0.00283,-0.426675,-0.045341,0.903268,-0.000479,0.002006,-0.00451327772.21,-2.700332,0.045259,0.745203,0.003423,-0.006767,0.003851,-0.426643,-0.045243,0.903288,0.000236,0.002839,-0.003828327772.22,-2.700397,0.045149,0.745177,0.00236,-0.005698,0.003838,-0.426585,-0.045134,0.90332,0.002528,0.004057,-0.003998327772.23,-2.700489,0.045119,0.745148,0.002356,-0.004625,0.004903,-0.426504,-0.045103,0.903361,0.0053,0.000029,-0.004801327772.24,-2.700658,0.045109,0.745108,0.004462,-0.005721,0.008135,-0.426351,-0.045094,0.903433,0.00826,-0.003429,-0.001684327772.25,-2.700805,0.045038,0.745046,0.007644,-0.004644,0.011363,-0.42622,-0.045022,0.903499,0.00793,-0.00202,-0.003169327772.26,-2.700995,0.044979,0.744949,0.006546,-0.004616,0.015624,-0.426049,-0.044964,0.903582,0.009438,-0.003574,0.000623327772.27,-2.701118,0.044868,0.744833,0.004418,-0.000338,0.01666,-0.42594,-0.044853,0.903639,0.006949,-0.000358,0.00052327772.28,-2.701182,0.044796,0.744673,0.002275,0.003953,0.019832,-0.425883,-0.044781,0.903669,0.007365,-0.001514,-0.003157327772.29,-2.701178,0.044719,0.744511,0.00123,0.008214,0.018742,-0.425888,-0.044704,0.903671,0.008591,-0.000782,-0.007903327772.3,-2.701137,0.044612,0.744358,0.000178,0.010342,0.017658,-0.425927,-0.044597,0.903658,0.010522,0.002239,-0.013506327772.31,-2.701105,0.044519,0.744236,0.002333,0.007111,0.013416,-0.425958,-0.044504,0.903648,0.009546,0.001902,-0.013435327772.32,-2.701109,0.044434,0.744153,0.004472,0.003892,0.011309,-0.425956,-0.04442,0.903653,0.009285,0.000749,-0.013302327772.33,-2.701177,0.04435,0.744076,0.004461,-0.001446,0.010257,-0.425897,-0.044335,0.903685,0.00866,0.00068,-0.00833327772.34,-2.701234,0.044183,0.74402,0.005533,-0.004662,0.008141,-0.425848,-0.044168,0.903716,0.004766,0.004679,-0.006744327772.35,-2.701271,0.044032,0.74397,0.003403,-0.005729,0.007058,-0.425818,-0.044018,0.903738,0.001913,0.004879,-0.005926327772.36,-2.70135,0.043896,0.743944,0.000228,-0.006813,0.002763,-0.425749,-0.043882,0.903777,0.00192,0.007017,-0.003127327772.37,-2.701399,0.043797,0.743942,-0.001868,-0.004701,-0.001532,-0.425706,-0.043783,0.903802,0.002244,0.006978,-0.004418327772.38,-2.701491,0.043799,0.743977,-0.001833,-0.003661,-0.005806,-0.425623,-0.043785,0.903841,0.00535,0.002586,-0.003938327772.39,-2.701585,0.043786,0.744017,-0.001837,-0.002589,-0.004742,-0.425539,-0.043772,0.903881,0.006502,0.00297,-0.005382327772.4,-2.701724,0.043789,0.74407,0.001365,-0.002598,-0.004714,-0.425412,-0.043775,0.90394,0.010083,0.00076,-0.006708327772.41,-2.701894,0.043815,0.744126,0.00136,-0.002652,-0.004709,-0.425259,-0.043801,0.904011,0.010067,-0.000373,-0.002675327772.42,-2.702038,0.043865,0.74416,0.000277,-0.002636,-0.002583,-0.425127,-0.043851,0.904071,0.007112,-0.0022,0.000424327772.43,-2.702117,0.043929,0.744184,-0.000783,0.001639,-0.001537,-0.425054,-0.043914,0.904102,0.007131,-0.002472,-0.002765327772.44,-2.702132,0.043966,0.744215,-0.000761,0.005897,-0.002618,-0.42504,-0.043952,0.904107,0.005561,-0.001122,-0.002526327772.45,-2.702081,0.044055,0.744242,0.002433,0.005895,-0.001522,-0.425084,-0.044041,0.904082,0.001912,-0.005672,-0.002318327772.46,-2.702011,0.044095,0.744255,0.002425,0.005902,-0.000455,-0.425148,-0.044081,0.90405,0.000587,-0.003419,-0.00369327772.47,-2.701844,0.044121,0.744254,0.000294,0.006974,-0.000477,-0.425298,-0.044106,0.903978,-0.002238,-0.00164,-0.008669327772.48,-2.701709,0.044113,0.74424,-0.000788,0.004852,0.000588,-0.42542,-0.044099,0.903921,0.000447,0.001451,-0.011358327772.49,-2.701586,0.044103,0.744256,0.000299,0.003763,-0.002602,-0.425531,-0.044089,0.903869,0.001352,0.001502,-0.013336327772.5,-2.701526,0.044151,0.744288,0.001366,-0.000519,-0.004716,-0.425585,-0.044137,0.903842,0.002336,-0.001518,-0.011935327772.51,-2.701539,0.044226,0.744339,0.002419,-0.004787,-0.004694,-0.425571,-0.044211,0.903844,0.001286,-0.004235,-0.007146327772.52,-2.70156,0.044256,0.744372,0.003451,-0.007968,-0.001472,-0.425552,-0.044242,0.903852,-0.002442,-0.003396,-0.002454327772.53,-2.701622,0.044249,0.744385,0.001309,-0.005816,0.000639,-0.425496,-0.044235,0.903879,-0.000804,-0.00084,0.001395327772.54,-2.70162,0.044226,0.74437,-0.00189,-0.004741,0.000607,-0.425499,-0.044212,0.903878,-0.002572,0.002204,-0.00065327772.55,-2.70163,0.04421,0.744355,-0.002934,-0.000479,-0.000482,-0.425489,-0.044196,0.903884,0.001387,0.002997,-0.003508327772.56,-2.701645,0.044275,0.744348,-0.002919,0.001647,-0.001556,-0.425474,-0.04426,0.903887,0.005842,-0.001013,-0.007998327772.57,-2.701731,0.044295,0.744355,0.001332,0.000515,-0.000444,-0.425397,-0.044281,0.903923,0.009824,-0.001144,-0.008339327772.58,-2.701843,0.044323,0.744371,0.003459,-0.001624,-0.000419,-0.425295,-0.044308,0.903969,0.009432,-0.002796,-0.005456327772.59,-2.701964,0.044291,0.74438,0.00132,-0.000546,0.000627,-0.425186,-0.044276,0.904022,0.009033,0.000774,-0.003983327772.6,-2.702039,0.044249,0.744392,0.001328,0.001586,0.00062,-0.42512,-0.044235,0.904056,0.006907,0.00238,-0.002887327772.61,-2.702038,0.044186,0.744399,-0.000788,0.004784,-0.000475,-0.425121,-0.044172,0.904058,0.003658,0.003919,-0.002737327772.62,-2.70204,0.044134,0.744411,0.000291,0.005841,-0.001537,-0.42512,-0.04412,0.904061,0.005,0.003409,-0.003731327772.63,-2.701986,0.04415,0.744442,0.002449,0.010093,-0.002599,-0.425169,-0.044135,0.904037,0.003889,-0.000802,-0.003387327772.64,-2.701959,0.044219,0.744483,0.005635,0.007958,-0.001497,-0.425192,-0.044205,0.904023,0.0035,-0.006988,-0.000458327772.65,-2.701886,0.044205,0.744505,0.008806,0.007976,0.002802,-0.425258,-0.044191,0.903993,-0.001607,-0.003844,0.003539327772.67,-2.701535,0.044091,0.744455,0.004509,0.009082,0.007032,-0.425578,-0.044077,0.903848,-0.009054,-0.001685,0.000876327772.66,-2.701753,0.044144,0.744495,0.00772,0.006927,0.004931,-0.42538,-0.04413,0.903938,-0.006719,-0.001967,0.004616327772.68,-2.701273,0.044079,0.744398,0.000251,0.010154,0.005924,-0.425815,-0.044065,0.903737,-0.008221,-0.001193,-0.004597327772.69,-2.701006,0.044122,0.744313,-0.002967,0.010177,0.008031,-0.426055,-0.044107,0.903622,-0.005891,-0.002829,-0.009777327772.7,-2.700817,0.04417,0.744224,-0.001922,0.003777,0.008059,-0.426225,-0.044156,0.903539,-0.001662,-0.003039,-0.014608327772.71,-2.700739,0.044178,0.744145,0.000194,-0.00156,0.008094,-0.426295,-0.044163,0.903506,0.003031,-0.001277,-0.016558327772.72,-2.700714,0.044177,0.744057,0.000147,-0.008005,0.010252,-0.426318,-0.044163,0.903495,0.002704,-0.002041,-0.016776327772.73,-2.700792,0.044269,0.743964,0.000135,-0.013343,0.0092,-0.426246,-0.044254,0.903524,0.003806,-0.006695,-0.014318327772.74,-2.700945,0.044214,0.743889,-0.00092,-0.01228,0.00812,-0.426108,-0.0442,0.903592,0.005912,0.002116,-0.008603327772.75,-2.701135,0.044245,0.743826,0.001229,-0.01016,0.007064,-0.425937,-0.044231,0.903671,0.007266,-0.003697,-0.006531327772.76,-2.701327,0.044215,0.743807,0.001272,-0.006989,0.002784,-0.425763,-0.044201,0.903754,0.008466,0.00053,-0.00228327772.77,-2.701521,0.044198,0.743813,0.004481,-0.007005,0.001744,-0.425589,-0.044184,0.903837,0.007711,-0.00144,0.000002327772.78,-2.701673,0.044146,0.743818,0.004481,-0.004866,0.002805,-0.425452,-0.044132,0.903904,0.006705,-0.000027,0.000118327772.79,-2.701769,0.044076,0.74382,0.003429,-0.002737,0.001722,-0.425367,-0.044061,0.903948,0.004743,0.002008,-0.000521327772.8,-2.701879,0.043985,0.743824,0.00237,-0.002741,0.000645,-0.425268,-0.043971,0.903999,0.006735,0.004023,-0.002052327772.81,-2.701988,0.043904,0.74382,0.001291,-0.001659,0.002768,-0.425172,-0.04389,0.904048,0.00879,0.003774,-0.005061327772.82,-2.702116,0.043852,0.743813,0.000239,-0.00167,0.000624,-0.425057,-0.043838,0.904104,0.009942,0.002685,-0.006338327772.83,-2.702219,0.043816,0.743791,0.001287,-0.000587,0.003833,-0.424965,-0.043802,0.90415,0.009224,0.001352,-0.006597327772.84,-2.702319,0.043798,0.743761,-0.000836,0.002617,0.003804,-0.424875,-0.043784,0.904193,0.010553,0.000632,-0.005343327772.85,-2.702414,0.043737,0.743718,-0.001911,0.002626,0.004863,-0.42479,-0.043723,0.904235,0.010743,0.003333,-0.006408327772.86,-2.702466,0.043697,0.743678,-0.000825,0.005815,0.003795,-0.424743,-0.043683,0.904259,0.008682,0.002377,-0.004937327772.87,-2.702533,0.043642,0.743657,-0.00082,0.004742,0.002731,-0.424684,-0.043629,0.90429,0.009004,0.003025,-0.003716327772.88,-2.702565,0.043618,0.743662,-0.001849,0.00685,-0.001556,-0.424655,-0.043604,0.904305,0.008563,0.003077,-0.004784327772.89,-2.702563,0.043599,0.743699,-0.001843,0.003578,-0.005815,-0.424657,-0.043585,0.904304,0.005437,0.003729,-0.006325327772.9,-2.702575,0.043618,0.743776,-0.000748,0.002482,-0.010073,-0.424646,-0.043604,0.904309,0.005549,0.002222,-0.00639327772.91,-2.702551,0.043673,0.743866,-0.001823,-0.001786,-0.011137,-0.424667,-0.043659,0.904296,0.000854,0.000141,-0.007537327772.92,-2.702559,0.043746,0.743966,-0.001826,-0.004992,-0.012195,-0.424658,-0.043732,0.904297,0.000479,0.000001,-0.006699327772.93,-2.70258,0.043803,0.744071,-0.002897,-0.008194,-0.013263,-0.424638,-0.043789,0.904304,-0.000884,0.001843,-0.007438327772.94,-2.70262,0.043879,0.744159,-0.006106,-0.010318,-0.013284,-0.424601,-0.043865,0.904317,0.000071,0.002102,-0.008169327772.95,-2.70268,0.044002,0.744236,-0.006118,-0.009238,-0.011152,-0.424544,-0.043988,0.904338,0.000274,-0.000781,-0.006496327772.96,-2.702746,0.044142,0.744324,-0.003961,-0.007124,-0.013275,-0.424482,-0.044128,0.90436,0.000867,-0.002274,-0.004687327772.97,-2.702797,0.044244,0.744456,0.000336,-0.00395,-0.015383,-0.424433,-0.04423,0.904378,0.001399,-0.002005,-0.003698327772.98,-2.702887,0.04435,0.744608,0.00247,-0.006096,-0.016426,-0.42435,-0.044336,0.904412,0.002552,-0.00318,-0.002404327772.99,-2.703016,0.044451,0.744769,0.004578,-0.011427,-0.015324,-0.424232,-0.044436,0.904463,0.003181,-0.003995,-0.002882327773,-2.703164,0.044568,0.744902,0.003484,-0.01247,-0.012127,-0.424095,-0.044553,0.904521,0.002968,-0.005023,-0.0032327773.01,-2.70325,0.044671,0.744998,0.00027,-0.011381,-0.010023,-0.424016,-0.044656,0.904553,-0.001262,-0.003821,-0.002728327773.02,-2.703263,0.044789,0.745053,-0.002945,-0.010292,-0.007919,-0.424002,-0.044774,0.904554,-0.003427,-0.003276,-0.005124327773.03,-2.703228,0.044914,0.745091,-0.005084,-0.007074,-0.005812,-0.424031,-0.044899,0.904534,-0.004695,-0.003135,-0.005913327773.04,-2.703232,0.04501,0.745126,-0.002957,-0.005011,-0.005802,-0.424026,-0.044994,0.904532,-0.000077,-0.001987,-0.007284327773.05,-2.7033,0.045098,0.745175,-0.001893,-0.006081,-0.00579,-0.423963,-0.045082,0.904557,0.003949,-0.002205,-0.007798327773.06,-2.703319,0.04516,0.745202,0.001278,-0.006063,-0.001491,-0.423944,-0.045145,0.904562,0.002024,-0.00257,-0.010382327773.07,-2.703415,0.045201,0.745216,0.003394,-0.009261,-0.000395,-0.423857,-0.045186,0.904601,0.004255,-0.0032,-0.008041327773.09,-2.703678,0.045279,0.745225,-0.000876,-0.00711,0.000628,-0.423618,-0.045264,0.90471,0.004108,-0.002939,-0.003342327773.08,-2.703567,0.045224,0.745225,0.001262,-0.008189,-0.000417,-0.423719,-0.045208,0.904665,0.006757,-0.002033,-0.003984327773.1,-2.703768,0.045303,0.745203,-0.001944,-0.004968,0.00168,-0.423535,-0.045287,0.904747,0.003354,-0.000596,-0.002861327773.11,-2.703881,0.045291,0.745188,0.000206,-0.002848,0.000625,-0.423433,-0.045276,0.904795,0.006014,0.000918,-0.001628327773.12,-2.703959,0.045283,0.745198,0.000217,-0.001789,-0.000446,-0.423363,-0.045268,0.904829,0.005257,0.000361,-0.002149327773.13,-2.70404,0.045288,0.745205,-0.000839,0.001413,-0.000465,-0.423289,-0.045273,0.904863,0.006984,0.000214,-0.002366327773.14,-2.704073,0.04529,0.74523,0.001323,0.004592,-0.002591,-0.423259,-0.045275,0.904877,0.006923,0.000307,-0.004669327773.15,-2.704099,0.045325,0.745259,0.001315,0.002459,-0.002585,-0.423236,-0.045309,0.904886,0.006091,-0.001474,-0.005411327773.16,-2.704127,0.045335,0.74527,0.002356,-0.00073,-0.000431,-0.42321,-0.045319,0.904897,0.004692,-0.000823,-0.00649327773.17,-2.704148,0.045338,0.74526,-0.000869,-0.00284,0.001683,-0.423191,-0.045323,0.904906,0.002674,-0.000286,-0.006682327773.18,-2.704136,0.045365,0.745232,-0.001945,-0.00283,0.002742,-0.423201,-0.04535,0.9049,-0.000322,-0.001251,-0.004021327773.19,-2.704102,0.0454,0.745204,-0.001948,-0.003896,0.002745,-0.423232,-0.045385,0.904884,-0.001634,-0.001658,-0.005928327773.2,-2.704073,0.04542,0.745166,-0.000903,-0.002896,0.003814,-0.423257,-0.045405,0.904871,-0.000663,-0.000997,-0.006357327773.21,-2.704043,0.045441,0.745134,-0.000896,-0.002902,0.002746,-0.423284,-0.045426,0.904858,-0.000926,-0.001205,-0.006878327773.22,-2.704058,0.045467,0.745095,0.00016,-0.003965,0.003826,-0.42327,-0.045451,0.904863,0.000738,-0.001744,-0.005525327773.23,-2.704043,0.045493,0.745072,-0.001959,-0.003972,0.001672,-0.423283,-0.045477,0.904856,0.000172,-0.000894,-0.007151327773.24,-2.704076,0.045528,0.745044,0.001224,-0.005033,0.003838,-0.423252,-0.045512,0.904868,0.002735,-0.00295,-0.007392327773.25,-2.704111,0.045539,0.745034,0.004445,-0.003989,0.001728,-0.42322,-0.045523,0.904883,0.003054,-0.0021,-0.007162327773.26,-2.704159,0.04549,0.74503,0.00337,-0.00398,0.002786,-0.423178,-0.045474,0.904905,0.002615,0.000446,-0.004468327773.27,-2.704223,0.045462,0.745036,0.002321,-0.002924,0.000638,-0.42312,-0.045446,0.904933,0.004266,0.000524,-0.004344327773.28,-2.704306,0.045428,0.745047,0.003393,-0.001861,0.000644,-0.423046,-0.045412,0.904969,0.005459,0.000246,-0.003557327773.29,-2.704369,0.045395,0.745048,0.002322,-0.002924,0.000638,-0.42299,-0.045379,0.904997,0.004502,0.000717,-0.004958327773.3,-2.704456,0.045367,0.745043,0.00125,-0.001849,0.001693,-0.422912,-0.045352,0.905035,0.006286,0.000506,-0.003927327773.31,-2.704528,0.045325,0.745035,0.002318,-0.001852,0.001703,-0.422848,-0.045309,0.905067,0.004467,0.000921,-0.002785327773.32,-2.704578,0.045298,0.745013,0.000179,-0.000773,0.002749,-0.422802,-0.045283,0.90509,0.00491,0.001032,-0.004348327773.33,-2.704629,0.045272,0.744991,0.000175,-0.00184,0.002752,-0.422757,-0.045256,0.905113,0.005337,0.001128,-0.006034327773.34,-2.704689,0.045298,0.744973,0.001243,-0.001843,0.002761,-0.422702,-0.045283,0.905137,0.004352,-0.001974,-0.004166327773.35,-2.704738,0.045277,0.744965,0.00125,-0.001849,0.001693,-0.422658,-0.045261,0.905159,0.004246,0.001178,-0.004753327773.36,-2.704783,0.045294,0.744956,0.000183,-0.003986,0.000623,-0.422617,-0.045279,0.905176,0.002543,-0.00123,-0.004084327773.37,-2.70481,0.045275,0.744937,-0.001975,-0.002975,0.001661,-0.422593,-0.04526,0.905189,0.001832,0.002123,-0.004157327773.38,-2.704775,0.04533,0.744917,-0.000912,-0.001904,0.002735,-0.422623,-0.045314,0.905172,-0.000259,-0.002934,-0.006154327773.39,-2.704766,0.04532,0.744898,0.00016,-0.00298,0.00168,-0.422631,-0.045305,0.905169,0.001397,0.000734,-0.008257327773.4,-2.704762,0.045374,0.744878,-0.000904,-0.001911,0.001667,-0.422635,-0.045358,0.905164,0.001843,-0.003515,-0.007169327773.41,-2.704757,0.045414,0.744862,0.001234,-0.00085,0.001683,-0.422639,-0.045398,0.905161,0.001496,-0.00256,-0.006525327773.42,-2.704782,0.045424,0.744853,0.001234,-0.00085,0.001683,-0.422616,-0.045409,0.905171,0.003655,-0.001436,-0.005436327773.43,-2.704819,0.045459,0.744842,-0.000901,-0.002984,0.000603,-0.422581,-0.045443,0.905185,0.003697,-0.001722,-0.007632327773.44,-2.704881,0.045463,0.744836,0.001234,-0.00299,0.000621,-0.422525,-0.045447,0.905211,0.005166,-0.000558,-0.006469327773.45,-2.704915,0.045471,0.744834,0.000174,-0.002993,-0.000456,-0.422494,-0.045455,0.905225,0.003747,-0.000672,-0.006772327773.46,-2.704995,0.04549,0.744848,0.001249,-0.003003,-0.001514,-0.422421,-0.045474,0.905258,0.006115,-0.000867,-0.00621327773.48,-2.705168,0.0455,0.74487,0.000182,-0.000861,-0.000462,-0.422265,-0.045484,0.905331,0.006387,0.00099,-0.004635327773.47,-2.705094,0.045516,0.74486,0.000166,-0.002987,0.000612,-0.422331,-0.0455,0.905299,0.007048,-0.001741,-0.005686327773.49,-2.705229,0.045477,0.744881,0.001242,-0.002997,-0.000446,-0.422209,-0.045461,0.905358,0.004363,0.001104,-0.005028327773.5,-2.705288,0.045468,0.744891,0.000178,-0.004067,-0.00152,-0.422156,-0.045453,0.905383,0.002784,0.000897,-0.004275327773.51,-2.705345,0.045489,0.744893,-0.000889,-0.001925,-0.000468,-0.422104,-0.045473,0.905406,0.004532,-0.000333,-0.005259327773.52,-2.705369,0.045505,0.744891,0.000163,-0.00092,-0.000471,-0.422083,-0.045489,0.905415,0.003061,-0.000516,-0.004521327773.53,-2.705385,0.045531,0.744874,-0.000916,0.000163,0.001652,-0.422068,-0.045515,0.905421,0.002955,-0.001238,-0.003764327773.54,-2.705349,0.045528,0.744853,0.000147,0.001233,0.002726,-0.4221,-0.045512,0.905406,0.000363,-0.000234,-0.00471327773.55,-2.705358,0.04556,0.74483,0.000143,0.000167,0.002729,-0.422091,-0.045544,0.905409,0.002444,-0.001773,-0.003523327773.56,-2.705389,0.045561,0.744816,0.00014,-0.003039,0.001671,-0.422064,-0.045545,0.905421,0.002569,-0.000353,-0.003932327773.57,-2.705417,0.045563,0.744807,-0.000916,-0.001976,0.000591,-0.422038,-0.045547,0.905433,0.00233,-0.000275,-0.003761327773.58,-2.705435,0.045561,0.744797,-0.000908,0.000156,0.000584,-0.422022,-0.045545,0.905441,0.003107,0.00099,-0.004669327773.59,-2.705397,0.045564,0.744804,0.000182,0.002273,-0.001548,-0.422055,-0.045549,0.905425,0.001493,0.00049,-0.005218327773.6,-2.70537,0.045544,0.744832,0.001257,0.002263,-0.002606,-0.422081,-0.045528,0.905414,0.002647,0.001507,-0.006519327773.61,-2.705353,0.045541,0.744853,0.003384,0.002264,-0.00152,-0.422096,-0.045525,0.905407,0.003257,-0.000023,-0.007016327773.62,-2.705376,0.045549,0.744878,0.002301,0.000141,-0.000456,-0.422075,-0.045533,0.905417,0.00461,-0.001036,-0.005941327773.63,-2.70538,0.045576,0.74489,0.001226,0.00015,0.000603,-0.422071,-0.04556,0.905417,0.00363,-0.002078,-0.006384327773.64,-2.705402,0.045608,0.744904,0.00123,-0.000923,-0.000462,-0.42205,-0.045592,0.905425,0.002281,-0.002122,-0.00389327773.65,-2.705425,0.045615,0.744898,0.000147,-0.000906,0.001664,-0.42203,-0.0456,0.905434,0.0031,-0.000848,-0.004739327773.66,-2.70544,0.045661,0.744888,0.000147,-0.000906,0.001664,-0.422015,-0.045645,0.905439,0.002444,-0.002832,-0.00427327773.67,-2.705428,0.045682,0.744879,0.000162,0.00122,0.00059,-0.422026,-0.045666,0.905433,0.001234,-0.001483,-0.003394327773.68,-2.705428,0.045647,0.744878,0.001218,0.003292,0.000586,-0.422026,-0.045632,0.905434,0.004058,0.001793,-0.003991327773.69,-2.705447,0.045641,0.744875,-0.000924,0.001165,0.000574,-0.42201,-0.045625,0.905443,0.004346,0.000428,-0.004304327773.7,-2.705469,0.04566,0.744872,0.002277,0.003295,0.001663,-0.421989,-0.045644,0.905451,0.005683,-0.00178,-0.004344327773.71,-2.705511,0.045647,0.74487,0.00121,0.001159,0.000592,-0.421951,-0.045631,0.90547,0.005798,0.00019,-0.005659327773.72,-2.705562,0.045671,0.744869,0.000143,0.001161,0.000583,-0.421904,-0.045656,0.90549,0.005263,-0.001708,-0.004062327773.73,-2.705574,0.045672,0.744875,0.001214,0.000085,-0.000472,-0.421894,-0.045656,0.905495,0.002918,-0.000487,-0.003807327773.74,-2.705573,0.045644,0.744885,0.001218,0.001152,-0.000475,-0.421895,-0.045628,0.905496,0.002614,0.001317,-0.004189327773.75,-2.70556,0.045635,0.744894,0.002281,0.002222,0.000598,-0.421907,-0.045619,0.905491,0.002428,0.000254,-0.004566327773.76,-2.705511,0.045622,0.744907,0.002293,0.003282,-0.000473,-0.421952,-0.045606,0.905471,0.001496,-0.00014,-0.00479327773.77,-2.705457,0.04561,0.744921,0.0023,0.005414,-0.000479,-0.422,-0.045594,0.905448,0.002033,-0.000106,-0.005867327773.78,-2.705433,0.045644,0.744928,0.000154,0.002221,-0.000488,-0.422021,-0.045628,0.905437,0.002985,-0.001964,-0.006694327773.79,-2.705448,0.045669,0.744936,0.002277,0.001156,0.000601,-0.422008,-0.045653,0.905442,0.003444,-0.002244,-0.004517327773.8,-2.705485,0.045664,0.744951,0.002281,0.000083,-0.000463,-0.421975,-0.045648,0.905458,0.004067,-0.000555,-0.004228327773.81,-2.705501,0.045657,0.74495,-0.000925,0.001164,0.000573,-0.42196,-0.045641,0.905465,0.003061,0.000826,-0.002679327773.82,-2.70551,0.045673,0.74495,0.001206,0.000092,0.000595,-0.421952,-0.045657,0.905468,0.003281,-0.001508,-0.005611327773.83,-2.705536,0.045659,0.744963,0.001218,0.001152,-0.000476,-0.421929,-0.045643,0.905479,0.005394,0.000386,-0.006416327773.84,-2.705518,0.045641,0.744972,0.002281,0.002222,0.000598,-0.421945,-0.045625,0.905473,0.002572,0.000108,-0.005662327773.85,-2.705526,0.045658,0.744975,0.00012,0.000045,0.000581,-0.421938,-0.045643,0.905475,0.004198,-0.000988,-0.007892327773.86,-2.705595,0.045638,0.744979,0.002251,-0.001027,0.000603,-0.421876,-0.045622,0.905505,0.006867,0.000533,-0.006518327773.87,-2.705671,0.045655,0.744973,0.000109,-0.001015,0.001652,-0.421806,-0.045639,0.905537,0.007347,-0.000916,-0.006413327773.88,-2.70571,0.045634,0.744979,0.002255,0.000038,0.000599,-0.421771,-0.045618,0.905554,0.00484,0.000132,-0.004843327773.89,-2.705738,0.045673,0.744963,0.001175,0.001121,0.002722,-0.421745,-0.045657,0.905564,0.004616,-0.002882,-0.005097327773.9,-2.705762,0.045679,0.744959,0.000138,0.005375,0.000565,-0.421723,-0.045663,0.905574,0.005555,-0.00077,-0.003063327773.91,-2.705704,0.045635,0.744954,0.002277,0.006436,0.00058,-0.421777,-0.045619,0.905551,0.001885,0.001124,-0.002475327773.92,-2.705623,0.04562,0.744942,0.001206,0.007512,0.001635,-0.42185,-0.045604,0.905518,0.001959,0.000347,-0.004944327773.93,-2.705531,0.045624,0.744939,0.001217,0.006432,-0.000497,-0.421933,-0.045608,0.905479,0.002561,-0.000321,-0.008583327773.94,-2.705462,0.045621,0.744964,0.001225,0.004287,-0.002626,-0.421995,-0.045606,0.90545,0.001646,0.000012,-0.006555327773.95,-2.705386,0.045645,0.744977,0.001203,0.000028,-0.001545,-0.422065,-0.045629,0.905417,-0.001901,-0.001871,-0.006048327773.96,-2.705362,0.045686,0.744985,0.002258,-0.001034,-0.000465,-0.422085,-0.04567,0.905405,-0.000355,-0.002868,-0.003306327773.97,-2.705338,0.045702,0.744986,0.001187,0.000042,0.00059,-0.422106,-0.045686,0.905394,0.000476,-0.001128,-0.004348327773.98,-2.705288,0.045742,0.744977,0.000115,0.001118,0.001645,-0.422151,-0.045726,0.905371,0.001054,-0.00269,-0.006949327773.99,-2.705238,0.045761,0.744964,0.002253,0.004318,0.002722,-0.422196,-0.045745,0.905349,0.00171,-0.002336,-0.005356327774,-2.705217,0.045721,0.744969,0.004391,0.005326,0.000598,-0.422216,-0.045705,0.905342,0.005101,-0.000056,-0.006356327774.02,-2.70529,0.045636,0.74505,0.003329,-0.002162,-0.00366,-0.422152,-0.04562,0.905377,0.005587,0.001843,-0.008038327774.01,-2.705248,0.045681,0.745004,0.005455,0.002117,-0.000451,-0.422188,-0.045665,0.905357,0.007653,0.000103,-0.007103327774.03,-2.705396,0.045637,0.745096,0.00331,-0.005355,-0.002582,-0.422055,-0.045622,0.905421,0.006162,-0.000979,-0.006862327774.04,-2.705495,0.045649,0.745131,0.002242,-0.003213,-0.00153,-0.421966,-0.045633,0.905463,0.005477,-0.000967,-0.004111327774.05,-2.705589,0.045639,0.74516,0.000122,-0.001081,-0.002623,-0.421881,-0.045623,0.905503,0.005926,0.001144,-0.003464327774.06,-2.705633,0.04562,0.745201,0.00228,0.003171,-0.003685,-0.421841,-0.045604,0.905522,0.005246,0.000972,-0.003773327774.07,-2.705644,0.045625,0.745248,0.002284,0.004238,-0.003688,-0.421831,-0.045609,0.905527,0.004747,-0.000671,-0.003015327774.08,-2.705653,0.045591,0.745307,0.002296,0.003158,-0.00582,-0.421823,-0.045575,0.905532,0.004724,0.002378,-0.004745327774.09,-2.705671,0.045592,0.745334,0.001194,-0.000018,-0.002617,-0.421808,-0.045576,0.905539,0.004144,0.000593,-0.005942327774.1,-2.705687,0.045608,0.745353,-0.000945,0.00106,-0.001571,-0.421793,-0.045592,0.905545,0.004526,0.000106,-0.006085327774.11,-2.705663,0.045635,0.745357,-0.000945,0.00106,-0.001571,-0.421813,-0.045619,0.905534,0.002532,-0.000477,-0.007265327774.12,-2.705614,0.045638,0.745347,-0.000957,0.00214,0.000561,-0.421858,-0.045622,0.905513,0.001448,0.000547,-0.006939327774.13,-2.705536,0.045688,0.745345,0.000122,0.003197,-0.000501,-0.421928,-0.045672,0.905478,-0.001046,-0.002866,-0.005027327774.14,-2.705467,0.045729,0.745349,0.000118,0.002131,-0.000497,-0.421989,-0.045713,0.905448,-0.001015,-0.002459,-0.00524327774.15,-2.705399,0.045762,0.745352,0.001185,0.002129,-0.000488,-0.422051,-0.045746,0.905417,-0.00016,-0.002381,-0.005546327774.16,-2.705367,0.045772,0.745368,0.001169,-0.000046,-0.001553,-0.422079,-0.045756,0.905403,0.000662,-0.000371,-0.005318327774.17,-2.705337,0.045791,0.745373,0.001157,-0.001106,-0.000482,-0.422106,-0.045775,0.90539,0.000048,-0.001115,-0.005076327774.18,-2.705307,0.045813,0.745376,0.00009,-0.001103,-0.000492,-0.422132,-0.045797,0.905377,0.000135,-0.000956,-0.006069327774.19,-2.705322,0.045805,0.745385,0.001153,-0.002172,-0.000479,-0.422119,-0.045789,0.905383,0.002548,0.000287,-0.006427327774.2,-2.705357,0.045794,0.745394,0.001146,-0.004305,-0.000473,-0.422087,-0.045778,0.905399,0.002318,0.000383,-0.004688327774.21,-2.705401,0.04581,0.745397,0.001146,-0.002165,0.000588,-0.422048,-0.045794,0.905416,0.003926,-0.000959,-0.006139327774.22,-2.705455,0.045826,0.745393,-0.000997,-0.004292,0.000576,-0.421998,-0.04581,0.905439,0.004655,0.000003,-0.007627327774.23,-2.70557,0.045847,0.745386,-0.001,-0.005359,0.000579,-0.421894,-0.045831,0.905486,0.006244,-0.000541,-0.004775327774.24,-2.705685,0.045912,0.745367,0.000051,-0.005349,0.002724,-0.421789,-0.045896,0.905532,0.006139,-0.003832,-0.005217327774.25,-2.705778,0.045937,0.745347,0.000055,-0.004283,0.002721,-0.421704,-0.04592,0.90557,0.004697,-0.002206,-0.003653327774.26,-2.705887,0.04593,0.745319,0.000043,-0.005342,0.003791,-0.421605,-0.045913,0.905617,0.004689,0.00003,-0.001991327774.27,-2.705973,0.045852,0.745294,0.000063,-0.00215,0.002714,-0.421529,-0.045836,0.905656,0.004704,0.003706,-0.00316327774.28,-2.706013,0.045846,0.745274,0.000078,-0.000024,0.00164,-0.421492,-0.04583,0.905673,0.003951,0.000298,-0.004184327774.29,-2.706021,0.045824,0.745254,-0.00099,0.002118,0.002692,-0.421486,-0.045807,0.905677,0.004097,0.001343,-0.005348327774.3,-2.706027,0.045821,0.745231,-0.000989,-0.000022,0.001631,-0.42148,-0.045805,0.90568,0.003496,0.000426,-0.005854327774.31,-2.70603,0.045785,0.745224,0.001157,0.001032,0.000579,-0.421479,-0.045769,0.905683,0.004654,0.001946,-0.00813327774.32,-2.706001,0.04579,0.745215,0.001145,-0.000027,0.00165,-0.421505,-0.045774,0.90567,0.002575,-0.00043,-0.009552327774.33,-2.705984,0.045821,0.745204,0.001125,-0.001124,0.001649,-0.421519,-0.045805,0.905662,0.001796,-0.002474,-0.007713327774.34,-2.70597,0.045807,0.745186,0.002189,-0.000054,0.002723,-0.421532,-0.045791,0.905657,0.002663,-0.000382,-0.007585327774.35,-2.705964,0.045854,0.745163,0.001121,-0.000051,0.002713,-0.421537,-0.045838,0.905652,0.00192,-0.004287,-0.00488327774.36,-2.705992,0.045866,0.745146,0.00111,-0.00325,0.002723,-0.421511,-0.04585,0.905663,0.001284,-0.002169,-0.001839327774.37,-2.706048,0.045892,0.745108,0.000034,-0.00324,0.003781,-0.421461,-0.045876,0.905686,0.00105,-0.002601,-0.000244327774.38,-2.706062,0.045929,0.745079,0.00005,-0.001114,0.002707,-0.421446,-0.045913,0.90569,0.000243,-0.00229,-0.001302327774.39,-2.706058,0.045915,0.74506,0.000057,0.001018,0.002701,-0.421451,-0.045899,0.905689,0.001788,0.000459,-0.004429327774.4,-2.70602,0.04588,0.74506,0.000077,-0.000068,-0.000499,-0.421486,-0.045864,0.905674,0.000588,0.00204,-0.005955327774.41,-2.705997,0.045861,0.745081,0.002223,0.000986,-0.001551,-0.421507,-0.045845,0.905666,0.003004,0.000969,-0.008372327774.42,-2.706003,0.045848,0.745112,0.003298,0.000977,-0.002609,-0.421502,-0.045832,0.905669,0.005608,0.0003,-0.009337327774.43,-2.706016,0.045855,0.745147,0.003294,-0.00009,-0.002606,-0.42149,-0.045839,0.905674,0.004162,-0.000853,-0.007435327774.44,-2.706033,0.045854,0.745173,0.002212,-0.002213,-0.001542,-0.421475,-0.045838,0.905681,0.002804,-0.000686,-0.006206327774.45,-2.706081,0.045872,0.745189,0.002196,-0.004339,-0.000468,-0.42143,-0.045856,0.905701,0.003019,-0.002103,-0.005875327774.46,-2.706109,0.045878,0.745201,-0.000994,-0.00327,-0.001566,-0.421405,-0.045862,0.905712,0.001727,0.000437,-0.003719327774.47,-2.706133,0.045919,0.745199,0.000061,-0.002194,0.000575,-0.421382,-0.045903,0.905721,0.0023,-0.001948,-0.004613327774.48,-2.706155,0.045939,0.745184,0.000053,-0.002187,0.001643,-0.421362,-0.045923,0.905729,0.001837,-0.001379,-0.004636327774.49,-2.706153,0.045934,0.745165,0.000065,0.001012,0.001633,-0.421364,-0.045918,0.905728,0.002312,-0.000042,-0.004392327774.5,-2.706155,0.045962,0.745153,-0.000995,0.001008,0.000556,-0.421362,-0.045946,0.905728,0.003287,-0.001387,-0.005398327774.51,-2.706174,0.045941,0.745143,0.000069,-0.000061,0.000568,-0.421345,-0.045925,0.905737,0.004124,0.001507,-0.005438327774.52,-2.706203,0.045899,0.745139,0.00111,-0.000089,0.001642,-0.42132,-0.045883,0.905751,0.004556,0.001938,-0.005803327774.53,-2.706241,0.045877,0.745139,0.001118,-0.002235,-0.000487,-0.421285,-0.045861,0.905768,0.005346,0.001015,-0.008536327774.54,-2.706292,0.045878,0.745161,0.002189,-0.003311,-0.001542,-0.421239,-0.045862,0.905789,0.004018,-0.00022,-0.006238327774.55,-2.706355,0.045904,0.745172,0.001103,-0.0065,-0.000475,-0.421182,-0.045888,0.905815,0.002893,-0.001277,-0.005912327774.56,-2.706414,0.045958,0.745164,0.002158,-0.005423,0.001667,-0.421127,-0.045942,0.905837,0.002258,-0.00429,-0.004806327774.57,-2.706493,0.045991,0.74515,0.001094,-0.004354,0.001654,-0.421055,-0.045975,0.905869,0.002567,-0.00296,-0.001939327774.58,-2.706583,0.045971,0.745133,0.000019,-0.004345,0.002712,-0.420974,-0.045955,0.905908,0.002792,0.000682,-0.000131327774.59,-2.706643,0.045959,0.745112,0.00109,-0.003282,0.002719,-0.42092,-0.045943,0.905934,0.00321,-0.000108,-0.002171327774.6,-2.706662,0.045946,0.745081,-0.001033,-0.000077,0.00269,-0.420903,-0.04593,0.905942,0.002446,0.000459,-0.00398327774.61,-2.706663,0.0459,0.745064,-0.001033,-0.002216,0.001629,-0.420903,-0.045884,0.905945,0.002171,0.002915,-0.006805327774.62,-2.706665,0.045926,0.745039,-0.002104,-0.003279,0.001623,-0.4209,-0.045909,0.905944,0.00223,-0.000401,-0.008178327774.63,-2.706682,0.046007,0.745007,-0.001059,-0.007541,0.002713,-0.420884,-0.045991,0.905948,0.001755,-0.004225,-0.00954327774.64,-2.706778,0.046105,0.744964,-0.00215,-0.008615,0.003772,-0.420794,-0.046088,0.905984,0.004138,-0.005166,-0.007196327774.65,-2.706875,0.046171,0.744909,-0.001102,-0.009671,0.005919,-0.420705,-0.046154,0.906022,0.003332,-0.004047,-0.006044327774.66,-2.706943,0.04621,0.744851,-0.003229,-0.009671,0.004833,-0.420643,-0.046194,0.906049,0.000919,-0.001551,-0.005613327774.67,-2.707038,0.046197,0.744807,-0.002143,-0.006482,0.003765,-0.420558,-0.046181,0.90609,0.002924,0.000755,-0.003319327774.68,-2.707053,0.046173,0.744781,-0.002108,-0.001164,0.001614,-0.420544,-0.046156,0.906097,0.001874,0.002745,-0.004913327774.69,-2.707043,0.046135,0.744783,-0.00207,0.003082,-0.001602,-0.420554,-0.046118,0.906095,0.004538,0.004081,-0.007565327774.7,-2.707065,0.046107,0.744824,0.000092,0.004122,-0.004789,-0.420535,-0.046091,0.906105,0.006747,0.003046,-0.005791327774.71,-2.707117,0.046091,0.744882,0.003287,0.00198,-0.004755,-0.420488,-0.046074,0.906128,0.00847,0.001152,-0.006912327774.72,-2.707184,0.046086,0.744935,0.001144,-0.000147,-0.004767,-0.420427,-0.04607,0.906156,0.006731,0.000904,-0.00488327774.73,-2.707281,0.046116,0.744961,-0.002081,-0.002258,-0.002653,-0.420339,-0.0461,0.906195,0.006551,0.00008,-0.002967327774.74,-2.707366,0.04613,0.744967,-0.003156,-0.002249,-0.001595,-0.420261,-0.046113,0.906231,0.005985,0.001329,-0.004085327774.75,-2.707436,0.046179,0.744976,-0.00314,-0.000123,-0.002669,-0.420197,-0.046162,0.906258,0.005615,-0.000423,-0.003121327774.76,-2.707482,0.046215,0.744993,0.001118,-0.001195,-0.001561,-0.420155,-0.046199,0.906276,0.004017,-0.001653,-0.002498327774.77,-2.70752,0.046221,0.745017,0.000065,0.003073,-0.001583,-0.42012,-0.046205,0.906291,0.004684,0.000016,-0.001201327774.78,-2.707582,0.046261,0.745038,-0.001006,0.00201,-0.001589,-0.420063,-0.046244,0.906316,0.005574,-0.00147,-0.000523327774.79,-2.707601,0.046258,0.745065,-0.001002,0.000936,-0.002654,-0.420046,-0.046241,0.906324,0.002825,0.001594,0.000094327774.8,-2.707625,0.046319,0.745083,-0.002077,-0.001193,-0.002657,-0.420023,-0.046303,0.906332,0.003,-0.001915,-0.004079327774.81,-2.70766,0.046384,0.745098,-0.0021,-0.003348,-0.002653,-0.41999,-0.046368,0.906343,0.002845,-0.001804,-0.005342327774.82,-2.707679,0.046469,0.745103,-0.003179,-0.004405,-0.001591,-0.419971,-0.046453,0.906348,0.001514,-0.002482,-0.006858327774.83,-2.707702,0.046549,0.745113,-0.001056,-0.00761,-0.001563,-0.419949,-0.046532,0.906354,-0.000247,-0.003135,-0.005719327774.84,-2.707704,0.046642,0.745111,-0.004258,-0.0076,-0.001591,-0.419945,-0.046625,0.906351,-0.002022,-0.003149,-0.00683327774.85,-2.707709,0.046673,0.745112,-0.001056,-0.007609,-0.001563,-0.419939,-0.046656,0.906352,-0.001951,-0.000814,-0.005946327774.86,-2.707747,0.046689,0.745116,-0.00106,-0.006536,-0.000499,-0.419905,-0.046672,0.906367,0.000227,0.000102,-0.004481327774.87,-2.707767,0.046682,0.745125,0.000011,-0.007611,-0.001554,-0.419887,-0.046665,0.906376,-0.00066,0.001392,-0.006733327774.88,-2.7078,0.046638,0.74514,0.000027,-0.005485,-0.002628,-0.419858,-0.046621,0.906391,0.001462,0.003744,-0.007954327774.89,-2.707855,0.046597,0.745183,0.00005,-0.005505,-0.005831,-0.419809,-0.04658,0.906417,0.004373,0.00413,-0.009673327774.9,-2.707937,0.046657,0.745237,0.002177,-0.005504,-0.004745,-0.419734,-0.04664,0.906448,0.005854,-0.002356,-0.009323327774.91,-2.708022,0.046674,0.745287,0.002177,-0.005504,-0.004745,-0.419656,-0.046657,0.906483,0.004617,-0.001027,-0.006154327774.92,-2.708091,0.046686,0.745334,0.005363,-0.0055,-0.002581,-0.419594,-0.04667,0.906511,0.002785,-0.002113,-0.003679327774.93,-2.708146,0.046721,0.745353,0.004265,-0.00547,0.00168,-0.419543,-0.046704,0.906533,0.001254,-0.004535,-0.003594327774.94,-2.708191,0.046734,0.745333,0.00423,-0.00651,0.005954,-0.419502,-0.046717,0.906551,-0.000999,-0.004507,0.00005327774.95,-2.708242,0.046798,0.745293,0.003166,-0.005441,0.005941,-0.419454,-0.046781,0.90657,-0.000208,-0.007082,-0.000519327774.96,-2.708258,0.046835,0.745231,0.001024,-0.00118,0.006974,-0.419439,-0.046818,0.906575,-0.00062,-0.005001,0.000758327774.97,-2.708207,0.046808,0.745178,0.001035,0.002019,0.006965,-0.419486,-0.04679,0.906555,-0.001717,-0.000802,-0.0018327774.98,-2.708134,0.046797,0.745127,0.002114,0.003076,0.005903,-0.419553,-0.046779,0.906525,-0.001361,-0.001316,-0.002701327774.99,-2.708052,0.04679,0.745087,0.00211,-0.00013,0.004845,-0.419627,-0.046773,0.906491,-0.000142,-0.001307,-0.009625327775,-2.708053,0.046781,0.745045,0.004214,-0.006527,0.005951,-0.419626,-0.046764,0.906492,0.002451,-0.002843,-0.010312327775.01,-2.708075,0.04677,0.74499,0.005244,-0.012914,0.008114,-0.419607,-0.046753,0.906501,-0.001246,-0.003158,-0.009941327775.02,-2.708138,0.046787,0.744911,0.003086,-0.015027,0.010237,-0.419549,-0.04677,0.906527,-0.002784,-0.004957,-0.005908327775.03,-2.708167,0.0468,0.744818,0.002029,-0.011824,0.010218,-0.419522,-0.046783,0.906539,-0.004566,-0.004471,-0.004531327775.04,-2.708177,0.046797,0.744724,0.000973,-0.008622,0.010199,-0.419513,-0.04678,0.906543,-0.003552,-0.002521,-0.004856327775.05,-2.708149,0.04671,0.744659,0.001011,-0.006516,0.005922,-0.41954,-0.046693,0.906535,-0.002502,0.003434,-0.006678327775.06,-2.708144,0.046611,0.744643,0.003177,-0.006548,0.00167,-0.419547,-0.046594,0.906537,0.001197,0.004236,-0.01167327775.07,-2.70823,0.046506,0.744674,0.004261,-0.010842,-0.002578,-0.419471,-0.046489,0.906578,0.006522,0.005046,-0.015312327775.08,-2.708435,0.046461,0.744742,0.008512,-0.018325,-0.003586,-0.419286,-0.046445,0.906666,0.008641,0.000653,-0.013248327775.09,-2.708756,0.046389,0.744817,0.007434,-0.021522,-0.003586,-0.418996,-0.046373,0.906803,0.010259,0.001451,-0.00658327775.1,-2.709097,0.046355,0.74487,0.004213,-0.024706,-0.002536,-0.418688,-0.046339,0.906947,0.006701,0.000349,-0.000377327775.11,-2.709409,0.046342,0.744879,-0.001132,-0.022546,-0.000454,-0.418405,-0.046326,0.907078,0.004388,0.000687,0.000957327775.12,-2.709694,0.046377,0.744862,-0.005399,-0.01508,0.000551,-0.418146,-0.046361,0.907196,0.005716,0.000065,0.004425327775.13,-2.709928,0.046382,0.744819,-0.005403,-0.009729,0.003738,-0.417933,-0.046365,0.907294,0.007914,0.002359,0.001687327775.14,-2.710067,0.046403,0.744786,-0.004309,-0.004408,0.002664,-0.417807,-0.046386,0.907351,0.007529,0.0009,-0.004351327775.15,-2.710185,0.046403,0.74475,-0.000048,-0.002274,0.00483,-0.4177,-0.046387,0.9074,0.00855,0.000305,-0.004843327775.16,-2.710329,0.04635,0.744722,0.002099,-0.001221,0.003778,-0.41757,-0.046334,0.907463,0.011137,0.001946,-0.00547327775.17,-2.710463,0.046282,0.744711,0.00317,-0.002297,0.002723,-0.41745,-0.046266,0.907522,0.009613,0.001878,-0.004323327775.18,-2.710616,0.046194,0.744711,-0.00002,-0.003369,0.000563,-0.417313,-0.046178,0.907589,0.009277,0.004628,-0.001812327775.19,-2.71073,0.046143,0.744724,-0.000008,-0.004449,-0.001569,-0.41721,-0.046127,0.907639,0.005742,0.003539,-0.002747327775.2,-2.710852,0.046076,0.744746,-0.000004,-0.005522,-0.002634,-0.417101,-0.046059,0.907692,0.005876,0.004754,-0.00274327775.21,-2.710947,0.046035,0.744771,-0.002127,-0.004457,-0.003723,-0.417015,-0.046019,0.907734,0.004372,0.004958,-0.002598327775.22,-2.711017,0.046078,0.7448,-0.003179,-0.002328,-0.004806,-0.416951,-0.046062,0.907761,0.00417,0.000942,-0.004242327775.23,-2.71111,0.046131,0.744842,-0.002111,-0.00447,-0.005858,-0.416866,-0.046115,0.907798,0.006374,-0.000302,-0.005835327775.24,-2.711229,0.046172,0.744896,0.00002,-0.005543,-0.005837,-0.416756,-0.046155,0.907846,0.007012,-0.000308,-0.00509327775.25,-2.711363,0.04624,0.744946,-0.001067,-0.008732,-0.004769,-0.416634,-0.046223,0.907898,0.005898,-0.002361,-0.005982327775.26,-2.711486,0.046336,0.74497,-0.00109,-0.008713,-0.001566,-0.41652,-0.046319,0.907946,0.004334,-0.003791,-0.003786327775.27,-2.711616,0.046387,0.745002,-0.001075,-0.008726,-0.003701,-0.416401,-0.04637,0.907998,0.005757,-0.001131,-0.006081327775.28,-2.71173,0.046418,0.745023,-0.003217,-0.008714,-0.002652,-0.416297,-0.046402,0.908044,0.003806,0.000351,-0.004739327775.29,-2.711828,0.046414,0.745043,-0.002153,-0.00767,-0.003718,-0.416209,-0.046397,0.908085,0.002558,0.002422,-0.00362327775.3,-2.711917,0.046441,0.74505,-0.003225,-0.006594,-0.002662,-0.416127,-0.046424,0.908121,0.00295,0.000907,-0.003259327775.31,-2.711981,0.046491,0.745061,-0.004288,-0.007664,-0.003736,-0.416068,-0.046475,0.908145,0.002402,0.000439,-0.006397327775.32,-2.712042,0.046542,0.745083,-0.004292,-0.00873,-0.003733,-0.416011,-0.046526,0.908169,0.001552,0.000383,-0.006557327775.33,-2.712128,0.046559,0.745093,-0.004303,-0.00979,-0.002662,-0.415933,-0.046542,0.908204,0.001916,0.002429,-0.006089327775.34,-2.712244,0.04661,0.745117,-0.005362,-0.011933,-0.0048,-0.415826,-0.046593,0.90825,0.003549,0.001168,-0.007005327775.35,-2.712332,0.046671,0.745144,-0.004295,-0.011936,-0.004791,-0.415745,-0.046654,0.908284,0.000889,0.000588,-0.005955327775.36,-2.712468,0.046737,0.745177,-0.004279,-0.011949,-0.006926,-0.41562,-0.04672,0.908337,0.002748,0.000455,-0.004758327775.37,-2.712582,0.046805,0.74522,-0.004276,-0.010883,-0.006929,-0.415516,-0.046788,0.908382,0.002323,0.000538,-0.004787327775.38,-2.71269,0.046901,0.745268,-0.005347,-0.011946,-0.006936,-0.415416,-0.046884,0.908423,0.001506,-0.001044,-0.003851327775.39,-2.712793,0.046996,0.745317,-0.006399,-0.007678,-0.006958,-0.415321,-0.046979,0.908461,0.002815,-0.000216,-0.004454327775.4,-2.71289,0.047126,0.745366,-0.006392,-0.007685,-0.008025,-0.41523,-0.047109,0.908496,0.003441,-0.002238,-0.005069327775.41,-2.712962,0.047222,0.745424,-0.004253,-0.008763,-0.009071,-0.415163,-0.047204,0.908522,0.00171,-0.000937,-0.006437327775.42,-2.713057,0.047352,0.745472,-0.005344,-0.01088,-0.006939,-0.415073,-0.047335,0.908556,0.002826,-0.002867,-0.007753327775.43,-2.713177,0.047458,0.745517,-0.005351,-0.013012,-0.006933,-0.414962,-0.04744,0.908601,0.002105,-0.00119,-0.005799327775.44,-2.71332,0.047552,0.745533,-0.006449,-0.015122,-0.003733,-0.41483,-0.047534,0.908656,0.002828,-0.001233,-0.006831327775.45,-2.713479,0.047662,0.745557,-0.005385,-0.014075,-0.004798,-0.414684,-0.047644,0.908718,0.002696,-0.002451,-0.004421327775.46,-2.713609,0.047792,0.745572,-0.005393,-0.014069,-0.003731,-0.414563,-0.047774,0.908766,0.001248,-0.003511,-0.005308327775.47,-2.713743,0.0479,0.745589,-0.007516,-0.013003,-0.00482,-0.414439,-0.047882,0.908817,0.001857,-0.001465,-0.004505327775.48,-2.713838,0.047974,0.745588,-0.005393,-0.011929,-0.002669,-0.414352,-0.047956,0.908852,0.000137,-0.000354,-0.003243327775.49,-2.713924,0.048001,0.745591,-0.004314,-0.010872,-0.003731,-0.414272,-0.047982,0.908887,-0.00153,0.001779,-0.001462327775.5,-2.714006,0.048028,0.745597,-0.004314,-0.008733,-0.00267,-0.414198,-0.048009,0.90892,0.001097,0.001562,-0.003372327775.51,-2.714082,0.048064,0.745619,-0.003231,-0.008749,-0.004795,-0.414128,-0.048045,0.90895,0.001637,0.001247,-0.005538327775.52,-2.714123,0.04811,0.745652,-0.00216,-0.007685,-0.004789,-0.41409,-0.048091,0.908965,-0.000003,-0.000172,-0.004668327775.53,-2.714135,0.048209,0.745673,-0.000041,-0.007678,-0.002636,-0.414077,-0.048191,0.908965,-0.000367,-0.004147,-0.007842327775.54,-2.714189,0.048285,0.745706,-0.001105,-0.008747,-0.003709,-0.414026,-0.048266,0.908984,0.000879,-0.002561,-0.006229327775.55,-2.714268,0.048361,0.745714,-0.001136,-0.01086,-0.0005,-0.413953,-0.048342,0.909014,0.000562,-0.003233,-0.005678327775.56,-2.71435,0.048416,0.745718,-0.001132,-0.009793,-0.000503,-0.413877,-0.048398,0.909045,0.000349,-0.002246,-0.003909327775.57,-2.714382,0.048448,0.745708,-0.001129,-0.006588,0.000555,-0.413847,-0.048429,0.909057,-0.000902,-0.000796,-0.004425327775.58,-2.714432,0.048503,0.745683,-0.000077,-0.006577,0.002699,-0.413801,-0.048484,0.909075,0.000502,-0.002984,-0.004077327775.59,-2.714469,0.048517,0.745655,-0.001144,-0.006574,0.00269,-0.413767,-0.048498,0.90909,0.000437,-0.000971,-0.00487327775.6,-2.714527,0.048562,0.745619,0.00097,-0.004439,0.004834,-0.413713,-0.048543,0.909112,0.002123,-0.003749,-0.003274327775.61,-2.714594,0.0486,0.745571,-0.000105,-0.004429,0.005892,-0.413652,-0.048581,0.909138,0.002656,-0.003375,-0.003102327775.62,-2.714659,0.048644,0.745492,-0.001204,-0.0044,0.010153,-0.413592,-0.048625,0.909163,0.002001,-0.002324,-0.004866327775.64,-2.714668,0.048611,0.745314,-0.000133,-0.003336,0.01016,-0.413584,-0.048592,0.909168,-0.001135,-0.001579,-0.00626327775.63,-2.714695,0.048615,0.745407,-0.000129,-0.004409,0.009095,-0.41356,-0.048596,0.909179,0.001908,0.000118,-0.004775327775.65,-2.714671,0.048582,0.745213,-0.000144,-0.004396,0.01123,-0.413582,-0.048563,0.909171,0.000496,-0.00025,-0.006339327775.66,-2.714704,0.048529,0.745133,-0.000121,-0.002276,0.009089,-0.413553,-0.04851,0.909187,0.002497,0.000948,-0.004188327775.67,-2.714718,0.048484,0.745067,0.002029,-0.000156,0.008033,-0.413541,-0.048465,0.909195,0.002836,0.000201,-0.005508327775.68,-2.71473,0.048457,0.74502,-0.00009,-0.002303,0.004818,-0.413531,-0.048438,0.909201,0.002261,0.000342,-0.005484327775.69,-2.714794,0.048396,0.744999,0.003116,-0.003385,0.003782,-0.413474,-0.048377,0.90923,0.004615,0.001593,-0.004139327775.7,-2.714849,0.048378,0.744979,0.002056,-0.003389,0.002705,-0.413424,-0.048359,0.909253,0.004107,-0.000576,-0.005063327775.71,-2.714922,0.04833,0.744966,0.000997,-0.003393,0.001628,-0.413359,-0.048311,0.909286,0.005125,0.002168,-0.005492327775.72,-2.714975,0.048319,0.744949,-0.00007,-0.00339,0.001618,-0.413311,-0.0483,0.909308,0.003765,0.000143,-0.004706327775.73,-2.715058,0.048318,0.744932,-0.000078,-0.003383,0.002686,-0.413236,-0.048299,0.909342,0.006055,-0.000086,-0.005396327775.74,-2.715112,0.048301,0.744907,-0.000074,-0.002317,0.002683,-0.413187,-0.048282,0.909365,0.004938,0.000339,-0.005481327775.75,-2.71516,0.048303,0.744881,-0.000075,-0.000178,0.003744,-0.413143,-0.048285,0.909385,0.004238,-0.00094,-0.004066327775.76,-2.715198,0.048276,0.744865,0.002064,-0.001257,0.002698,-0.413109,-0.048257,0.909402,0.003273,0.000345,-0.003335327775.77,-2.715236,0.048248,0.744851,-0.00008,-0.000184,0.002672,-0.413075,-0.048229,0.909419,0.003285,0.000805,-0.002772327775.78,-2.715259,0.048258,0.744813,-0.002223,-0.000171,0.003721,-0.413054,-0.048239,0.909428,0.003416,-0.00062,-0.004078327775.79,-2.715255,0.048303,0.744783,-0.002204,0.003021,0.002643,-0.413057,-0.048284,0.909424,0.003404,-0.002161,-0.005127327775.8,-2.715257,0.048329,0.744764,-0.002193,0.004081,0.001572,-0.413055,-0.04831,0.909424,0.004882,-0.00064,-0.005982327775.81,-2.715267,0.048333,0.744741,0.000991,0.000879,0.002678,-0.413046,-0.048314,0.909428,0.005514,-0.000392,-0.008564327775.82,-2.715265,0.048336,0.744727,-0.000062,0.003008,0.001594,-0.413047,-0.048317,0.909427,0.005073,-0.000069,-0.007739327775.83,-2.715248,0.048335,0.744729,0.003137,0.001933,0.001625,-0.413063,-0.048317,0.90942,0.00312,-0.000618,-0.006558327775.84,-2.715243,0.048312,0.744727,0.003133,0.000867,0.001629,-0.413068,-0.048293,0.909419,0.002133,-0.00052,-0.003398327775.85,-2.715219,0.048307,0.744729,0.001002,-0.0002,0.000545,-0.41309,-0.048288,0.909409,0.000202,-0.000769,-0.004212327775.86,-2.715214,0.048326,0.744735,0.001006,-0.001273,-0.000519,-0.413094,-0.048307,0.909406,0.000054,-0.001818,-0.00276327775.87,-2.715166,0.048342,0.744737,0.001014,0.00086,-0.000526,-0.413137,-0.048323,0.909386,-0.001215,-0.001421,-0.002968327775.88,-2.715099,0.048366,0.744733,0.000998,0.000874,0.00161,-0.413197,-0.048347,0.909357,-0.00201,-0.002007,-0.00387327775.89,-2.715047,0.048342,0.744728,0.001002,0.00194,0.001607,-0.413245,-0.048323,0.909337,0.000495,0.000654,-0.006505327775.9,-2.715006,0.048332,0.744711,0.002065,0.000871,0.001619,-0.413283,-0.048314,0.90932,0.001005,-0.000896,-0.006778327775.91,-2.714994,0.048331,0.744697,0.002046,-0.000182,0.003758,-0.413293,-0.048312,0.909315,0.00332,-0.001554,-0.007628327775.92,-2.714993,0.048326,0.74467,0.002019,-0.002303,0.004827,-0.413295,-0.048307,0.909315,0.001109,-0.001467,-0.005751327775.93,-2.71502,0.048289,0.744633,0.000944,-0.002294,0.005886,-0.413271,-0.04827,0.909328,0.002535,0.000479,-0.004726327775.94,-2.715028,0.048258,0.744597,0.000956,-0.001234,0.004815,-0.413264,-0.04824,0.909332,0.001308,-0.000237,-0.004837327775.95,-2.715033,0.048233,0.744553,0.000956,-0.001234,0.004815,-0.41326,-0.048214,0.909336,0.001883,-0.000095,-0.004123327775.96,-2.715039,0.048216,0.744494,-0.001194,-0.001215,0.006931,-0.413255,-0.048198,0.909339,0.001557,-0.00028,-0.0046327775.97,-2.71506,0.048167,0.744446,-0.000108,-0.000165,0.004802,-0.413236,-0.048148,0.90935,0.003538,0.002005,-0.005389327775.98,-2.715083,0.048113,0.74441,0.000968,-0.000174,0.003744,-0.413217,-0.048095,0.909362,0.004526,0.002303,-0.007537327775.99,-2.715133,0.048101,0.744399,-0.000077,-0.000192,0.000532,-0.413172,-0.048082,0.909383,0.005762,0.00052,-0.006429327776,-2.715185,0.048083,0.744392,-0.000081,0.000881,0.001596,-0.413125,-0.048065,0.909405,0.006691,0.00119,-0.005948327776.01,-2.715276,0.048078,0.744402,0.002066,-0.000205,-0.000517,-0.413042,-0.04806,0.909443,0.007403,-0.000173,-0.004444327776.02,-2.715334,0.048089,0.744417,0.002073,0.001928,-0.000524,-0.412989,-0.04807,0.909467,0.005839,-0.001154,-0.001813327776.03,-2.715411,0.048078,0.744415,0.00205,-0.000192,0.001618,-0.412919,-0.04806,0.909499,0.006059,-0.000646,-0.002593327776.04,-2.715459,0.048071,0.744407,0.000987,0.000877,0.001605,-0.412876,-0.048053,0.909519,0.004261,-0.000379,-0.001163327776.05,-2.715411,0.048069,0.744383,0.000998,0.006215,0.002657,-0.412919,-0.048051,0.909499,0.002443,-0.000976,-0.003875327776.06,-2.715353,0.048025,0.744364,0.00314,0.010481,0.003731,-0.412973,-0.048006,0.909477,0.004312,0.000994,-0.004158327776.07,-2.715262,0.047962,0.744368,0.004226,0.011531,0.001601,-0.413057,-0.047944,0.909442,0.004839,0.00142,-0.006519327776.08,-2.715176,0.047919,0.74438,0.006348,0.008326,0.00056,-0.413136,-0.0479,0.909409,0.003605,-0.000165,-0.006882327776.09,-2.715113,0.047891,0.744406,0.006333,0.004061,0.000573,-0.413195,-0.047873,0.909384,0.002596,-0.001459,-0.006918327776.1,-2.715096,0.047893,0.744419,0.003127,0.003003,0.000548,-0.413209,-0.047875,0.909377,0.003388,-0.001502,-0.005553327776.11,-2.715046,0.047902,0.744428,0.002052,0.000874,0.000545,-0.413255,-0.047884,0.909355,0.000032,-0.001707,-0.00541327776.12,-2.71502,0.047908,0.744421,0.000984,0.000877,0.000535,-0.413278,-0.04789,0.909345,0.001336,-0.000892,-0.005261327776.13,-2.715012,0.047918,0.744418,0.000984,0.000877,0.000535,-0.413285,-0.0479,0.909341,0.002122,-0.000684,-0.005334327776.14,-2.714982,0.04793,0.744423,0.003119,0.000871,0.000554,-0.413312,-0.047912,0.909328,0.001508,-0.001924,-0.006359327776.15,-2.71493,0.047904,0.744426,0.003111,0.000878,0.001622,-0.41336,-0.047885,0.909308,0.000656,-0.000317,-0.007696327776.16,-2.714918,0.047884,0.744423,0.00204,-0.000185,0.001615,-0.413371,-0.047866,0.909304,0.002345,-0.000581,-0.007082327776.18,-2.714897,0.047865,0.744402,0.000961,-0.001242,0.002677,-0.413391,-0.047847,0.909296,0.002899,0.000209,-0.007395327776.17,-2.714888,0.047892,0.744418,0.002032,-0.002318,0.001622,-0.413399,-0.047874,0.909291,0.001488,-0.001122,-0.008641327776.19,-2.714922,0.047865,0.744365,-0.001193,-0.002289,0.004797,-0.413368,-0.047847,0.909306,0.003898,-0.000112,-0.008031327776.2,-2.714971,0.047866,0.744323,-0.001197,-0.003355,0.0048,-0.413323,-0.047848,0.909326,0.004296,-0.000065,-0.006983327776.21,-2.715035,0.047832,0.74428,-0.000133,-0.004424,0.004813,-0.413266,-0.047813,0.909354,0.005078,0.001335,-0.007346327776.22,-2.715084,0.047821,0.744222,-0.003339,-0.003343,0.005849,-0.413222,-0.047803,0.909375,0.003523,0.001111,-0.004346327776.24,-2.715219,0.047769,0.744153,-0.002237,-0.000167,0.002646,-0.4131,-0.047751,0.909433,0.00363,0.001715,-0.000223327776.23,-2.715159,0.047792,0.744181,-0.001185,-0.002296,0.003729,-0.413154,-0.047773,0.909407,0.004661,0.001539,-0.002501327776.25,-2.715248,0.047775,0.744133,-0.000094,0.001981,0.00159,-0.413073,-0.047756,0.909445,0.002383,-0.000538,0.00123327776.26,-2.71527,0.047751,0.744141,0.002049,0.001969,0.000541,-0.413054,-0.047732,0.909455,0.002989,0.000659,0.000076327776.27,-2.715275,0.047701,0.744154,0.000993,0.003031,-0.000539,-0.413051,-0.047683,0.909459,0.003261,0.002395,-0.002263327776.28,-2.715266,0.047699,0.744164,0.000989,0.001965,-0.000535,-0.413059,-0.047681,0.909455,0.001865,-0.000125,-0.001939327776.29,-2.715233,0.04775,0.74417,0.000993,0.003031,-0.000539,-0.413088,-0.047731,0.909439,0.002154,-0.002836,-0.005921327776.3,-2.715174,0.047767,0.744173,-0.000086,-0.000165,-0.000538,-0.413141,-0.047749,0.909415,0.000864,-0.000484,-0.0082327776.31,-2.71517,0.047805,0.744172,-0.001161,-0.000155,0.00052,-0.413144,-0.047787,0.909411,0.002697,-0.001132,-0.007479327776.32,-2.715162,0.047873,0.744154,-0.000109,-0.002284,0.001603,-0.41315,-0.047855,0.909405,0.001956,-0.003735,-0.007076327776.33,-2.715154,0.047906,0.74414,0.000962,-0.00122,0.001609,-0.413157,-0.047887,0.9094,0.00181,-0.002131,-0.008323327776.34,-2.715172,0.047903,0.744121,-0.000102,-0.000151,0.001597,-0.41314,-0.047885,0.909408,0.003274,-0.000012,-0.005446327776.35,-2.715191,0.047915,0.744108,-0.000094,0.001982,0.00159,-0.413122,-0.047897,0.909415,0.004751,-0.000672,-0.006324327776.36,-2.715218,0.047916,0.744113,0.000977,0.000906,0.000535,-0.413098,-0.047897,0.909426,0.004696,-0.000214,-0.005969327776.37,-2.715237,0.04793,0.744126,0.002048,0.001969,0.000541,-0.41308,-0.047911,0.909433,0.005243,-0.0011,-0.006891327776.38,-2.715259,0.047917,0.744139,-0.000075,0.000895,-0.00161,-0.413061,-0.047899,0.909443,0.004415,0.001009,-0.003895327776.39,-2.715268,0.047919,0.744154,-0.000067,0.000888,-0.002677,-0.413052,-0.0479,0.909447,0.003018,0.000613,-0.004875327776.4,-2.715284,0.047916,0.744174,-0.000075,-0.000146,-0.002674,-0.413038,-0.047898,0.909453,0.00273,0.000977,-0.00418327776.41,-2.715333,0.047928,0.744191,-0.00115,-0.000137,-0.001616,-0.412993,-0.04791,0.909473,0.004821,0.000684,-0.003894327776.42,-2.715322,0.047926,0.744198,-0.001143,0.001996,-0.001622,-0.413003,-0.047907,0.909469,0.002648,0.001002,-0.004546327776.43,-2.715346,0.047958,0.74422,0.000992,-0.000149,-0.002665,-0.412981,-0.047939,0.909477,0.003114,-0.001392,-0.003777327776.44,-2.715364,0.047943,0.744229,-0.002214,0.000933,-0.001628,-0.412965,-0.047925,0.909485,0.004091,0.002484,-0.006012327776.45,-2.715345,0.047996,0.744244,