timestamp,attitude_roll,attitude_pitch,attitude_yaw,rotation_rate_x,rotation_rate_y,rotation_rate_z,gravity_x,gravity_y,gravity_z,user_acc_x,user_acc_y,user_acc_z351813,2.665175,-0.774741,-1.891055,1.527909,0.511869,-1.243905,0.327715,0.699531,0.635027,0.081739,0.081063,0.105818351813.01,2.674701,-0.795929,-1.886788,1.841311,0.711521,-1.235368,0.314908,0.714514,0.624742,0.129046,-0.023978,0.033492351813.02,2.685713,-0.817808,-1.884144,1.87654,0.978806,-1.10774,0.301054,0.729649,0.613986,0.196214,-0.004475,0.149548351813.03,2.696949,-0.837666,-1.882804,1.730015,1.013532,-0.905184,0.287846,0.743083,0.604129,0.21313,0.409657,0.311856351813.04,2.703983,-0.855271,-1.88203,1.521356,0.510489,-0.78269,0.278003,0.754749,0.594196,0.236493,0.933453,0.352398351813.05,2.710887,-0.870725,-1.880239,1.333964,0.705256,-0.756085,0.268992,0.764796,0.585432,0.083166,1.373632,0.513521351813.06,2.727112,-0.885988,-1.877899,1.355686,1.665783,-0.788701,0.254727,0.77454,0.578966,-0.093732,1.376888,0.377684351813.07,2.74724,-0.902599,-1.87296,1.442143,1.542702,-0.993649,0.238046,0.78494,0.572017,-0.016092,0.792971,-0.047359351813.08,2.763808,-0.920564,-1.866315,1.504123,1.049259,-1.091982,0.223299,0.795943,0.562683,0.073042,0.074433,-0.092376351813.09,2.78019,-0.939097,-1.857779,1.579186,0.972819,-1.175448,0.208799,0.807025,0.552371,0.023989,-0.325091,-0.041919351813.1,2.799602,-0.958977,-1.847889,1.723692,1.219289,-1.259286,0.192619,0.818604,0.541096,-0.059715,-0.500977,-0.058506351813.11,2.82314,-0.980898,-1.836407,1.928167,1.48147,-1.361867,0.174169,0.830997,0.528308,-0.077016,-0.6133,-0.082019351813.12,2.850196,-1.004392,-1.823248,2.07855,1.652439,-1.409122,0.15416,0.843836,0.51398,-0.076233,-0.66926,-0.080127351813.13,2.877367,-1.029122,-1.810416,2.267595,1.603539,-1.299482,0.134647,0.856847,0.497678,-0.086628,-0.625508,-0.154554351813.14,2.899064,-1.05504,-1.801378,2.445091,1.340292,-1.02486,0.118444,0.86992,0.478759,-0.074346,-0.511994,-0.284347351813.15,2.913673,-1.080492,-1.797941,2.459894,1.108893,-0.674877,0.106399,0.88219,0.458716,-0.107544,-0.278552,-0.279548351813.16,2.922158,-1.105607,-1.799585,2.4984,0.992904,-0.446759,0.097649,0.893737,0.437835,-0.135216,0.16237,-0.218017351813.17,2.931244,-1.131038,-1.802104,2.534435,1.215643,-0.45139,0.088891,0.904855,0.416337,-0.103784,0.581657,-0.09427351813.18,2.94736,-1.156205,-1.800744,2.433417,1.602,-0.614671,0.077749,0.915281,0.395241,-0.065923,0.879534,-0.023736351813.19,2.971693,-1.179063,-1.792992,2.134814,1.734295,-0.738332,0.064555,0.924249,0.376294,-0.068125,1.001349,-0.070157351813.2,2.996451,-1.199249,-1.782605,1.895438,1.451611,-0.690448,0.05251,0.931767,0.359241,-0.110905,0.741024,-0.183078351813.21,3.021486,-1.218023,-1.770623,1.811848,1.39865,-0.67073,0.041397,0.938418,0.343013,-0.095719,0.341535,-0.108775351813.22,3.047969,-1.236727,-1.757669,1.839436,1.446845,-0.624722,0.030653,0.944716,0.326455,-0.038725,0.068575,-0.033013351813.23,3.074224,-1.255656,-1.744815,1.880351,1.410981,-0.543108,0.020865,0.950753,0.309247,0.010507,-0.070229,-0.034054351813.24,3.099812,-1.274803,-1.732594,1.918141,1.403938,-0.458404,0.012183,0.956513,0.291435,0.010003,-0.129914,-0.0019351813.25,3.127144,-1.294527,-1.718474,1.999099,1.381396,-0.445885,0.003941,0.96208,0.27274,-0.066731,-0.090574,-0.006703351813.26,-3.128671,-1.314245,-1.704534,1.972821,1.416261,-0.338377,-0.003279,0.967271,0.253725,-0.097704,-0.107667,0.000807351813.27,-3.104927,-1.333054,-1.694062,1.877382,1.341881,-0.167077,-0.008633,0.971872,0.235351,-0.142475,-0.140177,-0.035201351813.28,-3.087042,-1.350744,-1.688101,1.755116,1.173578,-0.021352,-0.011902,0.975886,0.217956,-0.179795,-0.137782,-0.090515351813.29,-3.07451,-1.366863,-1.685618,1.579763,0.962395,0.064245,-0.013576,0.979277,0.202068,-0.183064,-0.101043,-0.133403351813.31,-3.059508,-1.393902,-1.681905,1.231775,0.356629,0.067314,-0.014428,0.984395,0.175381,-0.126181,-0.050893,-0.171978351813.3,-3.065294,-1.381249,-1.683565,1.411099,0.637578,0.056282,-0.014362,0.98209,0.187866,-0.154736,-0.038623,-0.183655351813.32,-3.053099,-1.405115,-1.678147,1.102598,0.257536,0.021641,-0.014576,0.986306,0.164279,-0.067929,-0.05552,-0.073199351813.33,-3.039305,-1.41576,-1.66587,1.090466,0.125434,-0.135024,-0.015767,0.988006,0.153609,-0.071421,-0.087722,-0.037505351813.34,-3.013498,-1.426564,-1.640225,1.13826,0.039026,-0.290237,-0.018361,0.989617,0.142555,0.028478,-0.118645,0.020409351813.35,-2.977027,-1.43742,-1.604242,1.159174,0.102598,-0.346837,-0.021785,0.991119,0.131184,0.112209,-0.212722,0.151576351813.36,-2.930886,-1.447736,-1.559833,1.111874,0.25932,-0.37335,-0.025673,0.992438,0.120035,0.14515,-0.281943,0.19396351813.37,-2.87639,-1.457021,-1.509194,1.035706,0.47499,-0.365058,-0.029757,0.993535,0.109561,0.180773,-0.337788,0.235852351813.38,-2.812731,-1.465427,-1.451151,0.986073,0.641515,-0.359589,-0.033968,0.994454,0.099539,0.186388,-0.357491,0.250559351813.39,-2.743951,-1.472994,-1.389799,0.916912,0.830825,-0.299904,-0.037813,0.995221,0.090028,0.184633,-0.380673,0.274688351813.4,-2.671476,-1.479741,-1.32652,0.859477,0.991239,-0.251774,-0.04119,0.995857,0.081065,0.153754,-0.366158,0.283544351813.41,-2.591074,-1.485978,-1.256586,0.850099,1.114066,-0.224466,-0.044318,0.996405,0.0722,0.091605,-0.339835,0.232518351813.42,-2.503873,-1.491891,-1.180813,0.839295,1.192284,-0.169274,-0.046928,0.996889,0.063331,0.013954,-0.311983,0.190484351813.43,-2.415321,-1.497349,-1.103831,0.77998,1.184414,-0.089687,-0.048732,0.997304,0.054864,-0.043798,-0.28066,0.12519351813.44,-2.334389,-1.502048,-1.034012,0.6543,1.114852,-0.014762,-0.049622,0.997638,0.047503,-0.05339,-0.231341,0.057904351813.45,-2.264906,-1.505863,-0.973834,0.527237,0.881924,0.025409,-0.049875,0.997893,0.041509,-0.021552,-0.185362,-0.036397351813.46,-2.209787,-1.508971,-0.924652,0.416811,0.509221,0.059742,-0.049595,0.998089,0.036848,0.015248,-0.144665,-0.089476351813.47,-2.162829,-1.511705,-0.880046,0.372858,0.173512,0.071064,-0.049006,0.998255,0.032956,0.001169,-0.132303,-0.114316351813.48,-2.113846,-1.514337,-0.831719,0.389541,0.058295,0.070491,-0.048311,0.998407,0.02916,-0.035185,-0.132302,-0.075333351813.49,-2.043857,-1.516987,-0.762586,0.496778,0.124954,0.034921,-0.047877,0.998553,0.024504,-0.01676,-0.133303,-0.005293351813.5,-1.938079,-1.519529,-0.659624,0.635523,0.367527,0.007636,-0.047827,0.998686,0.018401,0.055381,-0.105543,0.100465351813.51,-1.795558,-1.52184,-0.522291,0.76209,0.584839,0.028369,-0.047705,0.998802,0.010907,0.095603,-0.081993,0.136463351813.52,-1.615702,-1.523548,-0.348433,0.893228,0.623113,0.068904,-0.047183,0.998884,0.00212,0.123111,-0.030653,0.088349351813.53,-1.396733,-1.52392,-0.134756,1.045224,0.530196,0.114289,-0.046151,0.998901,-0.008115,0.131448,0.034103,0.033735351813.55,-0.938353,-1.51769,0.315045,1.179021,0.464114,0.179722,-0.042815,0.99859,-0.031377,0.090407,0.210806,0.128408351813.54,-1.158623,-1.522045,0.099003,1.152473,0.450165,0.153906,-0.044651,0.998812,-0.019522,0.104618,0.098738,0.050513351813.56,-0.755395,-1.511422,0.493146,1.170585,0.537847,0.20078,-0.040682,0.998238,-0.043199,0.075579,0.360649,0.193499351813.57,-0.608987,-1.503718,0.633575,1.164624,0.671176,0.203527,-0.038343,0.997751,-0.054979,0.066175,0.522726,0.24843351813.58,-0.494435,-1.494815,0.740063,1.165626,0.902403,0.176142,-0.036021,0.997115,-0.066817,0.087428,0.67003,0.281112351813.59,-0.405663,-1.485343,0.818881,1.122508,1.055982,0.160353,-0.033681,0.996351,-0.078423,0.091146,0.748751,0.260902351813.6,-0.33614,-1.476724,0.87881,0.955266,0.947973,0.207269,-0.030984,0.995578,-0.088677,0.062722,0.758053,0.206643351813.61,-0.276203,-1.470613,0.932106,0.665833,0.595658,0.35316,-0.027275,0.994986,-0.096225,-0.047417,0.668985,0.181048351813.62,-0.22011,-1.467698,0.984959,0.33939,0.298762,0.477206,-0.02247,0.99469,-0.100432,-0.214056,0.543625,0.266387351813.63,-0.165989,-1.467185,1.036322,0.096882,0.334902,0.520894,-0.017089,0.994637,-0.102005,-0.28972,0.475654,0.466064351813.64,-0.114401,-1.468392,1.083298,-0.099627,0.54104,0.485455,-0.011669,0.994761,-0.101557,-0.233265,0.441213,0.540141351813.65,-0.069252,-1.471229,1.122878,-0.301783,0.569914,0.407794,-0.006878,0.995047,-0.099165,-0.108707,0.415475,0.418333351813.66,-0.030169,-1.476442,1.158064,-0.584049,0.344353,0.362236,-0.002842,0.995552,-0.094172,0.016697,0.356453,0.257654351813.67,0.013304,-1.484905,1.200363,-0.946156,0.065198,0.407971,0.001141,0.996314,-0.085778,0.108066,0.252405,0.183999351813.68,0.078372,-1.49745,1.267388,-1.41128,-0.265613,0.503148,0.005737,0.997311,-0.073056,0.158569,0.227969,0.179654351813.7,0.470515,-1.533704,1.676135,-2.38136,-1.137533,0.639335,0.016812,0.999312,-0.033054,0.079044,0.332338,0.292881351813.69,0.196361,-1.514318,1.39145,-1.918347,-0.699784,0.591865,0.011013,0.998406,-0.055363,0.150471,0.282234,0.209126351813.71,1.307563,-1.547174,2.527321,-2.867025,-1.465772,0.624346,0.022806,0.999721,-0.006146,-0.022013,0.393117,0.391965351813.72,2.297838,-1.532335,-2.748758,-3.371321,-1.716383,0.56625,0.028729,0.99926,0.025558,-0.153882,0.457221,0.436402351813.73,2.630548,-1.499544,-2.396893,-3.870299,-1.943462,0.52201,0.034819,0.997463,0.062096,-0.255278,0.4865,0.455055351813.74,2.759869,-1.460773,-2.246151,-4.160481,-2.148146,0.40051,0.040903,0.993954,0.101899,-0.306574,0.560658,0.425522351813.75,2.833672,-1.422088,-2.149779,-4.04159,-2.182746,0.034347,0.044904,0.988963,0.141193,-0.313108,0.683507,0.311704351813.76,2.891923,-1.386833,-2.070421,-3.688649,-1.960325,-0.39355,0.045199,0.983126,0.177256,-0.274965,0.773862,0.152273351813.77,2.938065,-1.355854,-2.004609,-3.209388,-1.840478,-0.625704,0.043111,0.976989,0.208888,-0.207113,0.809617,-0.117687351813.78,2.971551,-1.329173,-1.950812,-2.785125,-1.918016,-0.728543,0.040492,0.970951,0.235829,-0.081843,0.698452,-0.412159351813.79,2.999439,-1.303192,-1.903855,-2.802243,-1.703874,-0.76778,0.037462,0.964407,0.261755,0.016859,0.548227,-0.619848351813.8,3.016752,-1.275398,-1.867332,-2.95576,-1.850446,-0.571142,0.036249,0.956686,0.288855,-0.03393,0.263132,-0.910559351813.81,3.0151,-1.244473,-1.848393,-3.249457,-2.027652,-0.047835,0.040441,0.947227,0.318001,-0.041188,-0.056465,-1.149621351813.82,2.996932,-1.209247,-1.845075,-3.63723,-2.19485,0.499179,0.050992,0.93535,0.350029,0.038913,-0.207887,-1.122902351813.83,2.96922,-1.168729,-1.849467,-4.126815,-2.494958,0.890883,0.06712,0.920254,0.385523,0.204868,-0.21336,-0.950556351813.84,2.933265,-1.125045,-1.852838,-4.342711,-3.616684,0.978883,0.089169,0.902287,0.421814,0.333392,-0.087025,-0.920028351813.85,2.892171,-1.079537,-1.852382,-4.525927,-4.3004,1.039149,0.116445,0.881739,0.457139,0.450922,0.016622,-0.792329351813.86,2.853131,-1.031547,-1.850056,-4.747259,-3.996784,1.2349,0.146077,0.858094,0.492276,0.466456,-0.079087,-0.416104351813.87,2.823669,-0.983548,-1.845634,-4.646729,-3.112256,1.191457,0.1732,0.832469,0.526306,0.250948,-0.145869,-0.182571351813.88,2.803976,-0.940348,-1.840156,-4.052433,-2.210374,1.074323,0.195268,0.807763,0.556228,-0.036073,-0.088845,0.026475351813.89,2.792101,-0.904436,-1.835831,-3.324762,-1.355877,0.942481,0.21166,0.786077,0.580761,-0.243444,-0.213979,0.203739351813.91,2.769672,-0.842957,-1.832067,-2.90089,-1.573492,1.12088,0.241758,0.746613,0.619775,-0.369627,-0.479676,-0.467981351813.9,2.783169,-0.873465,-1.8328,-2.92873,-1.125813,0.905733,0.225274,0.766559,0.601365,-0.358819,-0.324725,-0.025452351813.92,2.749738,-0.811523,-1.834039,-2.86858,-1.928304,1.35287,0.2629,0.725337,0.636216,-0.352515,-0.709391,-0.751053351813.93,2.727236,-0.781095,-1.837498,-2.674306,-2.03916,1.447795,0.285904,0.704058,0.650047,-0.252152,-0.707125,-0.588417351813.94,2.704248,-0.752168,-1.841827,-2.480254,-1.994587,1.500605,0.30927,0.683223,0.661482,-0.258122,-0.548671,-0.551802351813.95,2.682885,-0.725275,-1.846187,-2.237969,-1.804709,1.448756,0.331347,0.663341,0.67096,-0.283877,-0.456066,-0.51326351813.96,2.664066,-0.701002,-1.850214,-1.983507,-1.581014,1.353134,0.351212,0.644984,0.678709,-0.29181,-0.400874,-0.462095351813.97,2.64724,-0.679811,-1.853512,-1.696776,-1.452809,1.178001,0.368985,0.628646,0.684583,-0.264615,-0.394744,-0.477277351813.98,2.632428,-0.661941,-1.856059,-1.416334,-1.287251,1.004836,0.3845,0.614649,0.688743,-0.211953,-0.373255,-0.468558351813.99,2.619868,-0.647127,-1.858329,-1.14016,-1.072485,0.854975,0.397614,0.602897,0.691678,-0.157212,-0.388129,-0.438748351814,2.609433,-0.635668,-1.860566,-0.828719,-0.8632,0.696896,0.408289,0.593715,0.693399,-0.106714,-0.399333,-0.415461351814.01,2.601201,-0.627906,-1.862942,-0.487215,-0.634896,0.524073,0.416341,0.587451,0.693946,-0.072866,-0.405933,-0.375739351814.02,2.59374,-0.623736,-1.865733,-0.160347,-0.56847,0.378307,0.422779,0.584072,0.692905,-0.074116,-0.393428,-0.383259351814.03,2.587075,-0.622854,-1.868952,0.132543,-0.450766,0.232088,0.42766,0.583355,0.69051,-0.047945,-0.372708,-0.332462351814.04,2.581826,-0.625024,-1.872165,0.387277,-0.302173,0.063021,0.430605,0.585117,0.687181,-0.048143,-0.349933,-0.256761351814.05,2.578199,-0.630142,-1.875081,0.619677,-0.156797,-0.119044,0.431489,0.58926,0.683074,-0.070008,-0.277965,-0.172042351814.06,2.576133,-0.637873,-1.877478,0.806051,-0.036854,-0.296095,0.430446,0.595488,0.678315,-0.076213,-0.249678,-0.112977351814.07,2.57543,-0.647773,-1.879214,0.951636,0.053449,-0.456329,0.427739,0.603412,0.673003,-0.069447,-0.229709,-0.07611351814.08,2.575538,-0.659441,-1.880216,1.064803,0.070384,-0.597403,0.423861,0.612675,0.667062,-0.014087,-0.184391,-0.043282351814.09,2.575893,-0.672874,-1.880234,1.170495,0.024239,-0.768249,0.419175,0.623236,0.660204,0.07022,-0.112891,-0.004762351814.1,2.576441,-0.687994,-1.879152,1.263293,-0.021798,-0.927462,0.413719,0.634988,0.6524,0.16729,-0.025934,0.079228351814.11,2.578126,-0.704246,-1.876722,1.285884,0.034827,-1.071583,0.407053,0.647459,0.644286,0.193701,0.05118,0.194047351814.12,2.582212,-0.721835,-1.873148,1.395396,0.238414,-1.207916,0.398312,0.660763,0.636192,0.217884,0.164402,0.248909351814.13,2.589214,-0.741657,-1.869728,1.613775,0.559358,-1.285995,0.386898,0.675511,0.627691,0.206806,0.155773,0.159861351814.14,2.598967,-0.761923,-1.866511,1.599505,0.820857,-1.253811,0.373611,0.690314,0.619582,0.293854,0.093225,0.220323351814.15,2.611177,-0.781028,-1.862747,1.500573,1.012288,-1.209341,0.359279,0.70401,0.612608,0.414387,0.26831,0.364184351814.16,2.623287,-0.799869,-1.859325,1.536147,0.940078,-1.144747,0.345201,0.717265,0.605283,0.403853,0.597875,0.362109351814.17,2.634794,-0.818947,-1.856574,1.603332,1.026579,-1.094239,0.331511,0.730427,0.597141,0.322451,0.849193,0.467785351814.18,2.650572,-0.838265,-1.855203,1.686906,1.65726,-0.982237,0.315335,0.743484,0.589742,0.080417,1.044541,0.626704351814.19,2.669839,-0.858755,-1.854128,1.833236,1.856932,-1.04563,0.296928,0.75703,0.582013,-0.033165,0.951344,0.414904351814.2,2.688098,-0.880334,-1.851857,1.891649,1.611029,-1.122322,0.279029,0.770952,0.572518,0.132668,0.594237,0.019584351814.21,2.707261,-0.902425,-1.848405,1.930693,1.709859,-1.159652,0.260776,0.784832,0.56217,0.173642,0.142735,-0.052786351814.22,2.729442,-0.925341,-1.844342,2.033251,1.980249,-1.188405,0.240974,0.798826,0.551188,0.123177,-0.26454,-0.000254351814.23,2.754761,-0.949537,-1.839254,2.161365,2.186449,-1.239163,0.219585,0.813146,0.539051,0.07288,-0.52831,-0.05553351814.24,2.781298,-0.975175,-1.833636,2.336547,2.20083,-1.248356,0.197788,0.8278,0.525002,0.016186,-0.714961,-0.136528351814.25,2.807109,-1.001713,-1.828066,2.427487,2.09971,-1.177853,0.176898,0.842396,0.508996,-0.009631,-0.790821,-0.231179351814.26,2.829511,-1.028427,-1.823751,2.503372,1.816751,-1.032188,0.158484,0.856488,0.491234,-0.039999,-0.728436,-0.2528351814.27,2.846885,-1.055375,-1.821641,2.580061,1.486958,-0.872494,0.143168,0.870085,0.471651,-0.056361,-0.568632,-0.259768351814.28,2.858993,-1.082655,-1.822678,2.683599,1.263904,-0.684059,0.130778,0.883206,0.450382,-0.103282,-0.371609,-0.255527351814.29,2.865303,-1.111025,-1.828304,2.868535,1.108839,-0.500459,0.121048,0.896154,0.426914,-0.18164,-0.10964,-0.210285351814.3,2.868625,-1.140213,-1.83657,2.931104,1.096183,-0.44969,0.112527,0.908722,0.401947,-0.247247,0.231689,-0.174179351814.31,2.874805,-1.168127,-1.841937,2.69517,1.120547,-0.582088,0.103312,0.920018,0.378012,-0.278422,0.604335,-0.132025351814.32,2.886548,-1.192886,-1.840686,2.305189,1.042951,-0.717656,0.093089,0.929438,0.357043,-0.304897,0.820837,-0.146167351814.33,2.902454,-1.215088,-1.83466,2.075021,1.050735,-0.769872,0.08249,0.9374,0.338344,-0.327195,0.698861,-0.130397351814.34,2.922274,-1.23647,-1.825259,2.021142,1.122063,-0.813268,0.07139,0.944632,0.320273,-0.22735,0.126947,-0.060584351814.35,2.945533,-1.257853,-1.812838,2.030023,1.170944,-0.836829,0.059973,0.951432,0.301962,-0.150473,-0.060547,-0.065237351814.36,2.971694,-1.279122,-1.798549,2.029132,1.305557,-0.79667,0.048621,0.957764,0.283416,-0.080267,-0.199387,-0.027877351814.37,2.999745,-1.300146,-1.784165,2.034367,1.473549,-0.702103,0.037797,0.963597,0.264673,-0.052918,-0.24793,-0.047509351814.38,3.028881,-1.321031,-1.769826,2.04473,1.555074,-0.620043,0.027801,0.96897,0.245609,-0.055999,-0.188773,-0.091907351814.39,3.060708,-1.341936,-1.752877,2.068083,1.544426,-0.606994,0.01833,0.973925,0.226126,-0.082692,-0.080279,-0.133963351814.4,3.096623,-1.3632,-1.730548,2.115616,1.36825,-0.622062,0.009265,0.978529,0.2059,-0.079059,-0.020628,-0.202528351814.41,3.132704,-1.383078,-1.706565,1.933733,1.2342,-0.4823,0.001659,0.982433,0.186611,-0.116283,-0.010112,-0.126552351814.42,-3.119267,-1.40093,-1.685448,1.76532,0.98816,-0.339946,-0.003774,0.985607,0.169009,-0.151454,0.08707,-0.11162351814.43,-3.087252,-1.41738,-1.66143,1.646068,0.792354,-0.328648,-0.0083,0.988255,0.15259,-0.126572,0.148968,-0.085726351814.44,-3.050081,-1.43275,-1.630195,1.555797,0.576009,-0.349068,-0.012575,0.990487,0.137033,-0.078581,0.170707,-0.091958351814.45,-3.006156,-1.446852,-1.589611,1.440766,0.300017,-0.369523,-0.016693,0.992329,0.122496,-0.007325,0.139461,-0.097166351814.46,-2.964948,-1.459026,-1.549624,1.200391,0.1253,-0.279264,-0.0196,0.99376,0.109802,0.060982,0.024611,-0.024872351814.47,-2.929843,-1.468263,-1.515068,0.918528,0.060739,-0.156589,-0.021512,0.994748,0.100068,0.133481,-0.085278,0.036651351814.48,-2.902926,-1.475339,-1.488509,0.704486,0.055393,-0.083698,-0.022533,0.995447,0.092611,0.209743,-0.166636,0.117381351814.49,-2.880395,-1.480876,-1.467622,0.558552,0.232012,-0.041728,-0.023189,0.99596,0.086753,0.259243,-0.233722,0.237862351814.5,-2.86023,-1.485944,-1.452053,0.532529,0.556655,0.022195,-0.023532,0.996402,0.081418,0.259128,-0.313678,0.320773351814.51,-2.837242,-1.49175,-1.437756,0.620253,1.002397,0.062185,-0.023663,0.996877,0.075335,0.259061,-0.36379,0.36189351814.52,-2.805046,-1.498649,-1.419319,0.731767,1.524816,0.096812,-0.023804,0.997399,0.068041,0.242615,-0.413246,0.356474351814.53,-2.763888,-1.506428,-1.396767,0.80569,1.987644,0.134495,-0.023722,0.997929,0.05979,0.202906,-0.410679,0.279062351814.54,-2.703696,-1.514546,-1.358244,0.858079,2.237851,0.095755,-0.02384,0.998418,0.050916,0.129232,-0.334203,0.164492351814.55,-2.615245,-1.522492,-1.292003,0.871159,2.231165,0.055315,-0.024257,0.998834,0.04175,0.057964,-0.281365,0.040983351814.56,-2.504134,-1.529813,-1.201068,0.825285,1.959454,0.068551,-0.024385,0.99916,0.032926,-0.011672,-0.246917,-0.063932351814.57,-2.375795,-1.536224,-1.088626,0.752985,1.485297,0.096049,-0.023958,0.999402,0.024916,-0.063735,-0.204923,-0.096602351814.58,-2.218003,-1.541702,-0.941586,0.708481,0.966105,0.096165,-0.023208,0.999577,0.017541,-0.100175,-0.158695,-0.076104351814.59,-2.016749,-1.545923,-0.746859,0.65703,0.579105,0.087278,-0.022438,0.999691,0.010727,-0.148323,-0.115795,-0.030762351814.6,-1.769402,-1.548487,-0.503209,0.628684,0.320863,0.045103,-0.021869,0.999751,0.004401,-0.151334,-0.043956,0.032769351814.61,-1.460521,-1.548737,-0.196209,0.710819,0.16774,-0.019918,-0.021924,0.999757,-0.002428,-0.088245,-0.036927,0.113206351814.62,-1.131844,-1.546324,0.130847,0.829375,0.188741,-0.018947,-0.02215,0.999701,-0.0104,-0.01177,-0.086096,0.196328351814.63,-0.837817,-1.541333,0.422256,0.970276,0.302792,0.036392,-0.021893,0.999566,-0.019711,0.062436,-0.052728,0.236599351814.64,-0.602248,-1.533626,0.654326,1.134568,0.381562,0.087771,-0.021052,0.999309,-0.030623,0.099467,0.041615,0.226821351814.66,-0.310187,-1.512217,0.939057,1.281117,0.365762,0.185195,-0.01787,0.998285,-0.055752,0.133456,0.254233,0.170147351814.65,-0.430409,-1.523496,0.822393,1.265612,0.395317,0.129447,-0.019729,0.998882,-0.042971,0.124816,0.144749,0.194246351814.67,-0.219629,-1.500949,1.026364,1.229179,0.341909,0.270234,-0.015205,0.997562,-0.068114,0.137657,0.354016,0.177291351814.68,-0.144042,-1.489886,1.098433,1.187103,0.395886,0.357259,-0.011601,0.996729,-0.079985,0.142034,0.451498,0.212339351814.69,-0.078494,-1.478843,1.158775,1.156546,0.618094,0.408639,-0.0072,0.995775,-0.091541,0.151533,0.539717,0.247928351814.7,-0.020035,-1.468305,1.208419,1.052013,1.017411,0.441754,-0.00205,0.994752,-0.102291,0.146245,0.634505,0.256451351814.72,0.098683,-1.453429,1.302113,0.494528,1.297285,0.612222,0.011537,0.99312,-0.116528,-0.005937,0.762892,0.095456351814.71,0.038008,-1.45955,1.254224,0.812276,1.317175,0.524175,0.004218,0.993818,-0.110937,0.089043,0.721681,0.197119351814.73,0.159524,-1.450223,1.352077,0.161596,1.07336,0.635621,0.019106,0.99274,-0.118754,-0.193575,0.734662,0.064356351814.74,0.217498,-1.449656,1.400973,-0.122424,0.923414,0.573803,0.026077,0.992671,-0.117997,-0.282378,0.639821,0.110642351814.75,0.271964,-1.451393,1.447307,-0.36652,0.823257,0.476947,0.031998,0.99288,-0.114742,-0.163606,0.512262,0.169216351814.76,0.326029,-1.455685,1.495565,-0.656246,0.534603,0.399484,0.036787,0.993382,-0.108807,-0.008864,0.35493,0.18179351814.78,0.468705,-1.471676,1.637307,-1.277894,-0.157765,0.414308,0.044702,0.995092,-0.088286,0.061636,0.185649,0.208754351814.77,0.38734,-1.462555,1.554703,-0.956283,0.164227,0.379836,0.040806,0.994148,-0.100027,0.036281,0.249276,0.192862351814.79,0.590966,-1.482845,1.764024,-1.678689,-0.474023,0.477969,0.04894,0.996135,-0.072941,0.06663,0.194646,0.210316351814.81,1.107978,-1.50486,2.300479,-2.598769,-1.17038,0.574555,0.058957,0.997827,-0.029418,-0.035749,0.350089,0.240691351814.8,0.789061,-1.494992,1.97003,-2.134066,-0.815677,0.548706,0.053746,0.997128,-0.053354,0.030238,0.254337,0.2091351814.82,1.555093,-1.506619,2.762599,-3.082063,-1.495619,0.528613,0.064126,0.997941,-0.001007,-0.121743,0.4644,0.286453351814.83,2.005395,-1.494662,-3.052671,-3.573236,-1.706963,0.445954,0.068991,0.997103,0.032025,-0.198675,0.540083,0.317691351814.84,2.326695,-1.469224,-2.712839,-4.037221,-1.732714,0.383258,0.073782,0.994846,0.069553,-0.263159,0.57507,0.345883351814.85,2.526325,-1.434571,-2.495991,-4.398803,-1.514679,0.30043,0.078383,0.990736,0.110901,-0.29489,0.639407,0.366974351814.86,2.652005,-1.396432,-2.355911,-4.373846,-1.21532,0.093666,0.081582,0.984837,0.153103,-0.270959,0.735302,0.247913351814.87,2.736319,-1.361694,-2.258755,-3.784811,-1.122216,-0.274121,0.081843,0.978218,0.190766,-0.202449,0.854088,-0.013749351814.88,2.799051,-1.334104,-2.18187,-3.040587,-1.266418,-0.664395,0.078761,0.972119,0.220866,-0.131281,0.827365,-0.302699351814.89,2.849245,-1.310322,-2.118206,-2.724391,-1.095149,-0.760387,0.074223,0.966268,0.246612,-0.032933,0.563411,-0.403396351814.9,2.892151,-1.28611,-2.065134,-2.761919,-0.745008,-0.716929,0.069333,0.95975,0.272164,0.027057,0.261426,-0.607537351814.91,2.923396,-1.259395,-2.024598,-2.954015,-0.813266,-0.462139,0.066325,0.951905,0.299128,0.065237,-0.034516,-0.966472351814.93,2.933381,-1.193873,-1.983743,-3.674769,-1.877547,0.234171,0.076082,0.929801,0.360112,0.057997,-0.082542,-1.033086351814.92,2.935693,-1.228831,-1.999573,-3.268266,-1.278959,-0.039574,0.068559,0.942097,0.328256,0.054396,-0.146947,-1.118128351814.94,2.922611,-1.154209,-1.971215,-4.115423,-2.379634,0.405889,0.087903,0.914475,0.394979,0.137607,-0.042725,-0.804006351814.95,2.905926,-1.111066,-1.959286,-4.421116,-2.902817,0.504107,0.103602,0.896172,0.431441,0.243933,-0.008157,-0.61502351814.96,2.884568,-1.066429,-1.947174,-4.507318,-3.328785,0.558032,0.122845,0.875481,0.467379,0.314304,-0.013145,-0.414141351814.97,2.860901,-1.022956,-1.935695,-4.324283,-3.351269,0.625897,0.144285,0.853651,0.500461,0.258044,-0.058516,-0.208362351814.98,2.840735,-0.981964,-1.926112,-4.038353,-2.630763,0.69775,0.164584,0.83159,0.530444,0.118726,-0.161073,-0.014758351814.99,2.828203,-0.943997,-1.918134,-3.68848,-1.704841,0.73537,0.180826,0.809909,0.557987,-0.081919,-0.320849,0.092007351815,2.820068,-0.909977,-1.912557,-3.255453,-1.178152,0.74396,0.193958,0.78949,0.582311,-0.248111,-0.408432,-0.036092351815.01,2.811654,-0.879634,-1.908169,-2.921385,-1.248567,0.717191,0.206519,0.770506,0.603051,-0.318137,-0.446241,-0.337976351815.02,2.799115,-0.85049,-1.904967,-2.834541,-1.583138,0.799042,0.221513,0.751604,0.621308,-0.318727,-0.584459,-0.589386351815.03,2.782368,-0.821093,-1.903706,-2.800511,-1.837978,0.989102,0.239553,0.731891,0.637926,-0.260305,-0.759784,-0.616075351815.04,2.763227,-0.792343,-1.904075,-2.650908,-1.898579,1.085621,0.259386,0.712001,0.652514,-0.191424,-0.637141,-0.532244351815.05,2.745322,-0.765445,-1.905074,-2.424917,-1.66991,1.091171,0.278321,0.692858,0.665196,-0.188782,-0.531084,-0.421543351815.06,2.728659,-0.74123,-1.906285,-2.132673,-1.577319,1.021901,0.296013,0.675196,0.675638,-0.194298,-0.478647,-0.476709351815.07,2.713289,-0.720281,-1.907434,-1.812214,-1.44135,0.910036,0.312169,0.659596,0.683728,-0.136632,-0.430165,-0.449673351815.08,2.699818,-0.703214,-1.907861,-1.46002,-1.28368,0.701217,0.326117,0.646672,0.689538,-0.082083,-0.411138,-0.418969351815.09,2.688634,-0.690211,-1.907498,-1.107765,-1.119645,0.487041,0.33746,0.6367,0.69335,-0.034466,-0.409695,-0.399771351815.1,2.678841,-0.681654,-1.906312,-0.711738,-1.030606,0.236102,0.346653,0.630078,0.694862,-0.038533,-0.417111,-0.417442351815.11,2.670866,-0.678002,-1.904848,-0.269661,-0.851982,0.007716,0.353225,0.627238,0.694121,-0.015227,-0.445842,-0.346297351815.12,2.664766,-0.679385,-1.903724,0.202223,-0.625242,-0.186387,0.357054,0.628315,0.691182,-0.016997,-0.464267,-0.276143351815.13,2.661084,-0.685702,-1.90335,0.664664,-0.314122,-0.362676,0.357755,0.633216,0.68633,-0.018888,-0.490348,-0.176228351815.14,2.660211,-0.696238,-1.903608,1.038328,0.009164,-0.508812,0.355245,0.641336,0.680066,-0.032445,-0.472177,-0.101666351815.15,2.662371,-0.709984,-1.904143,1.312582,0.333915,-0.635532,0.349677,0.651821,0.672945,-0.027472,-0.456555,-0.053774351815.16,2.667678,-0.726397,-1.90457,1.540851,0.634266,-0.76258,0.341171,0.664181,0.665181,0.011597,-0.404888,-0.00678351815.17,2.675248,-0.745267,-1.904663,1.752632,0.80245,-0.887236,0.330432,0.678168,0.656432,0.033643,-0.335715,0.023988351815.18,2.683699,-0.766406,-1.904467,1.950983,0.843929,-0.987067,0.318463,0.693551,0.646196,0.040271,-0.293389,0.061538351815.19,2.692345,-0.789682,-1.904081,2.144857,0.846025,-1.077208,0.30577,0.710129,0.634209,0.01851,-0.269318,0.090095351815.2,2.701933,-0.814953,-1.903357,2.321972,0.950569,-1.162467,0.291942,0.727693,0.620671,-0.03297,-0.291124,0.061076351815.21,2.714203,-0.841086,-1.902341,2.355038,1.244775,-1.165205,0.276326,0.745368,0.606688,-0.095082,-0.410788,0.067933351815.22,2.730782,-0.864449,-1.900101,1.963729,1.588808,-1.062886,0.259204,0.760738,0.595056,-0.067752,-0.33784,0.244574351815.23,2.751703,-0.882787,-1.895,1.465435,1.696975,-1.040867,0.241355,0.772512,0.587345,0.041375,0.195308,0.491376351815.24,2.768187,-0.898077,-1.886559,1.14939,0.683541,-1.074724,0.227305,0.78213,0.580177,0.062612,0.900197,0.486108351815.25,2.778882,-0.909221,-1.874582,0.667285,0.10135,-1.113471,0.217981,0.789025,0.574389,0.013693,1.313926,0.660917351815.26,2.799809,-0.919622,-1.859848,0.735475,1.275321,-1.269118,0.203152,0.795373,0.571062,-0.314572,1.392676,0.643218351815.27,2.832446,-0.934662,-1.841812,1.20347,1.920241,-1.609735,0.180749,0.804398,0.565927,-0.318918,0.768417,-0.158807351815.28,2.866061,-0.953681,-1.820837,1.561833,1.544089,-1.74748,0.157436,0.815551,0.556857,0.013752,-0.199752,-0.497104351815.29,2.892928,-0.974447,-1.802033,1.79431,1.04905,-1.511184,0.138221,0.827391,0.544352,0.268975,-0.702834,-0.377558351815.3,2.914841,-0.996005,-1.786748,1.95243,0.904868,-1.30436,0.122222,0.839306,0.529743,0.276643,-0.790951,-0.211826351815.32,2.960167,-1.041973,-1.754199,2.13249,0.883266,-1.267488,0.091031,0.863401,0.496237,0.099216,-0.694578,-0.176382351815.31,2.936939,-1.018777,-1.770986,2.093506,0.887214,-1.336176,0.106574,0.851467,0.513464,0.162621,-0.806316,-0.225897351815.33,2.979633,-1.06442,-1.740762,2.113808,0.75085,-0.962942,0.078209,0.874508,0.478665,0.063591,-0.42181,-0.188748351815.34,2.994304,-1.086739,-1.732735,2.19727,0.810035,-0.667694,0.068297,0.885114,0.460335,0.010652,-0.056821,-0.184899351815.35,3.011508,-1.110331,-1.725686,2.335288,1.229861,-0.657084,0.057642,0.895846,0.440611,-0.012309,0.507261,-0.132307351815.36,3.034799,-1.133619,-1.717807,2.255465,1.741275,-0.59206,0.045129,0.90595,0.420972,0.010657,0.944574,-0.08717351815.37,3.057579,-1.15469,-1.711813,2.036189,1.697199,-0.404848,0.033919,0.91467,0.402777,-0.02574,1.06052,-0.159247351815.38,3.076645,-1.174107,-1.706429,1.918323,1.346949,-0.364242,0.025076,0.922345,0.385553,-0.056616,0.874927,-0.237314351815.39,3.09764,-1.193789,-1.697551,1.993658,1.292735,-0.474466,0.016175,0.929771,0.367784,0.003005,0.538217,-0.172563351815.4,3.12397,-1.21508,-1.68423,2.183803,1.445182,-0.567231,0.006137,0.937397,0.348208,0.054517,0.277752,-0.093004351815.41,-3.126786,-1.238118,-1.666416,2.366247,1.618169,-0.618482,-0.004835,0.945171,0.32654,0.079466,0.103016,-0.096514351815.42,-3.089988,-1.262676,-1.645483,2.541262,1.731093,-0.557504,-0.015643,0.952905,0.302864,0.082431,0.008139,-0.166679351815.43,-3.053074,-1.289654,-1.623832,2.724357,1.561878,-0.420857,-0.024528,0.960739,0.276367,0.074073,-0.009155,-0.269516351815.44,-3.017746,-1.315563,-1.603439,2.6025,1.634938,-0.216066,-0.031188,0.967604,0.250538,0.090255,-0.006606,-0.317844351815.45,-2.983261,-1.339114,-1.585955,2.348855,1.799853,-0.04687,-0.036204,0.973281,0.226743,0.074488,0.039139,-0.212797351815.46,-2.951497,-1.360713,-1.571818,2.156684,1.807749,0.107332,-0.039405,0.978014,0.204784,0.023886,0.085051,-0.219036351815.47,-2.922814,-1.381045,-1.560215,1.979453,1.711862,0.212851,-0.040936,0.982051,0.184118,-0.032519,0.124501,-0.217672351815.48,-2.896523,-1.399415,-1.548844,1.811918,1.444744,0.223944,-0.041378,0.98535,0.165448,-0.086598,0.190614,-0.230404351815.49,-2.868639,-1.416299,-1.531631,1.692404,0.970013,0.137851,-0.041484,0.988089,0.148187,-0.120534,0.270654,-0.283425351815.5,-2.834677,-1.431651,-1.503686,1.566869,0.543098,0.021663,-0.041903,0.990335,0.132215,-0.095792,0.301947,-0.256071351815.51,-2.796172,-1.445261,-1.469364,1.405499,0.459214,0.006629,-0.042394,0.992131,0.117811,-0.038905,0.176052,-0.082487351815.52,-2.753784,-1.457216,-1.432693,1.244871,0.665604,0.028093,-0.042859,0.993557,0.10492,-0.003512,0.054448,0.091354351815.53,-2.705882,-1.467988,-1.393123,1.152829,0.925051,0.03825,-0.043314,0.99472,0.093039,0.045847,-0.078109,0.191736351815.54,-2.640916,-1.478232,-1.338695,1.173289,1.146388,-0.027374,-0.044369,0.995719,0.081087,0.144223,-0.198157,0.250639351815.55,-2.561385,-1.488276,-1.272319,1.160998,1.41871,0.031488,-0.045186,0.996597,0.068937,0.162602,-0.319321,0.306078351815.56,-2.465112,-1.497184,-1.192493,1.068405,1.779321,0.018911,-0.046044,0.997292,0.05735,0.207558,-0.378731,0.324471351815.57,-2.357716,-1.504574,-1.104864,0.932626,2.075229,0.042456,-0.046721,0.997808,0.046863,0.178496,-0.439504,0.323468351815.58,-2.238591,-1.510329,-1.006609,0.834867,2.126456,0.005145,-0.047449,0.998172,0.037422,0.137751,-0.442569,0.274224351815.59,-2.106918,-1.514629,-0.89565,0.766592,2.097733,-0.014583,-0.048261,0.998423,0.028676,0.095579,-0.394114,0.237468351815.6,-1.968823,-1.517824,-0.77755,0.709622,2.010529,-0.002003,-0.048808,0.998597,0.020522,-0.006749,-0.345079,0.207658351815.61,-1.830409,-1.520226,-0.658457,0.652532,1.953376,0.041449,-0.048855,0.998722,0.012976,-0.151783,-0.307804,0.172784351815.62,-1.6917,-1.5221,-0.538472,0.617856,1.880119,0.077672,-0.048322,0.998815,0.005871,-0.265917,-0.310094,0.132236351815.63,-1.548705,-1.523079,-0.412856,0.614218,1.720072,0.061041,-0.047688,0.998862,-0.001054,-0.319378,-0.303717,0.061204351815.64,-1.405805,-1.522594,-0.284685,0.625411,1.412484,-0.010537,-0.047529,0.998838,-0.007914,-0.321734,-0.289732,-0.033453351815.65,-1.274361,-1.520587,-0.163454,0.633698,0.904492,-0.071924,-0.047999,0.99874,-0.014661,-0.272451,-0.253806,-0.096668351815.66,-1.159362,-1.517692,-0.052834,0.645532,0.313687,-0.073235,-0.04865,0.99859,-0.021228,-0.203929,-0.234827,-0.093534351815.67,-1.056667,-1.514063,0.049442,0.679701,0.007541,-0.074146,-0.049373,0.998391,-0.027885,-0.127477,-0.195748,0.012566351815.68,-0.96255,-1.509729,0.143759,0.715951,0.002129,-0.07061,-0.050084,0.998136,-0.034874,-0.051967,-0.170316,0.164711351815.69,-0.874452,-1.504852,0.232241,0.760378,-0.042566,-0.035919,-0.050555,0.997827,-0.042267,0.036456,-0.114282,0.225067351815.7,-0.790655,-1.499503,0.31769,0.814002,-0.182125,0.009817,-0.050634,0.99746,-0.050104,0.106725,-0.038216,0.21557351815.71,-0.710698,-1.493599,0.400431,0.869902,-0.274752,0.058634,-0.050311,0.997022,-0.05845,0.127215,0.041156,0.228342351815.72,-0.635409,-1.487174,0.478525,0.912416,-0.240487,0.100543,-0.049572,0.996506,-0.067223,0.135403,0.133804,0.264046351815.73,-0.563696,-1.479956,0.551891,0.983175,-0.098698,0.126357,-0.04847,0.995877,-0.07668,0.145959,0.239704,0.303136351815.74,-0.496974,-1.471759,0.618368,1.047911,0.108021,0.130567,-0.047141,0.9951,-0.086915,0.14588,0.319811,0.322526351815.75,-0.438111,-1.463,0.675041,1.052837,0.293544,0.128981,-0.045642,0.994196,-0.097427,0.152255,0.375159,0.325881351815.76,-0.387029,-1.45423,0.722894,1.014541,0.368405,0.146572,-0.043897,0.993214,-0.107701,0.192564,0.413006,0.303196351815.77,-0.342323,-1.445878,0.764309,0.948078,0.353858,0.178068,-0.041823,0.992208,-0.117365,0.235427,0.431224,0.277964351815.78,-0.302406,-1.438282,0.801444,0.853591,0.29684,0.226533,-0.03935,0.991233,-0.126131,0.249417,0.432,0.256655351815.79,-0.265857,-1.432061,0.835537,0.68018,0.282766,0.285924,-0.036334,0.990392,-0.133432,0.249606,0.434642,0.261728351815.8,-0.231145,-1.428862,0.867074,0.320124,0.382448,0.377511,-0.032407,0.989944,-0.137696,0.173947,0.405838,0.282151351815.81,-0.192073,-1.430258,0.901556,-0.154675,0.529961,0.564049,-0.02674,0.990141,-0.1375,0.030966,0.36336,0.30231351815.82,-0.141542,-1.436264,0.94676,-0.599935,0.59106,0.757513,-0.018921,0.990964,-0.132786,-0.225112,0.346637,0.253147351815.83,-0.081853,-1.445741,1.000626,-0.951289,0.651005,0.807654,-0.010198,0.992191,-0.124312,-0.418253,0.378155,0.173506351815.84,-0.018112,-1.457346,1.058439,-1.187786,0.611682,0.722425,-0.00205,0.993571,-0.113188,-0.354685,0.446675,0.118529351815.85,0.044109,-1.470756,1.117185,-1.422673,0.289376,0.574003,0.004404,0.995,-0.099777,-0.125223,0.489192,0.056411351815.86,0.101731,-1.486432,1.175489,-1.681078,-0.153694,0.372353,0.008557,0.996443,-0.083828,0.083636,0.546525,0.040921351815.87,0.163204,-1.504591,1.241623,-1.951439,-0.543068,0.225959,0.010749,0.997809,-0.065278,0.26783,0.591592,0.100023351815.88,0.272077,-1.525829,1.358418,-2.335301,-0.856957,0.163767,0.01208,0.998989,-0.043299,0.311696,0.567844,0.166102351815.89,0.66639,-1.549734,1.764109,-2.84756,-1.230121,0.114514,0.013019,0.999778,-0.016555,0.250501,0.546395,0.203277351815.9,2.428073,-1.549898,-2.742002,-3.436653,-1.626621,0.050781,0.013677,0.999782,0.015799,0.119395,0.550771,0.167856351815.91,2.88415,-1.51453,-2.266502,-4.091919,-2.032569,-0.018839,0.014318,0.998417,0.054384,-0.008612,0.555171,0.158767351815.92,2.987778,-1.469984,-2.141415,-4.743002,-2.098187,-0.060624,0.015419,0.994923,0.099453,-0.099465,0.598736,0.168399351815.93,3.028605,-1.421762,-2.084072,-4.910369,-1.423795,-0.063058,0.016741,0.988915,0.147537,-0.121935,0.632042,0.239121351815.94,3.048449,-1.376905,-2.054612,-4.3876,-0.809719,-0.022985,0.017921,0.981262,0.191844,-0.135643,0.668442,0.169652351815.95,3.057955,-1.337796,-2.03976,-3.861395,-0.376758,0.045427,0.019289,0.972978,0.230091,-0.162661,0.70851,-0.130573351815.96,3.066221,-1.300622,-2.029822,-3.719703,-0.160713,0.040671,0.020098,0.963724,0.266142,-0.015688,0.635793,-0.27046351815.97,3.069022,-1.265186,-2.02286,-3.544102,-0.479626,0.108301,0.021816,0.953664,0.300083,0.22054,0.463161,-0.727299351815.98,3.05726,-1.229081,-2.029067,-3.636151,-0.720412,0.615407,0.028227,0.942181,0.333913,0.317354,0.168231,-0.905492351815.99,3.026677,-1.191879,-2.045865,-3.689985,-1.743263,1.071828,0.042416,0.929066,0.367475,0.361896,0.049984,-1.160627351816,2.983953,-1.153069,-2.066495,-3.809585,-2.59073,1.407555,0.063688,0.914013,0.400654,0.34682,0.127216,-1.170673351816.01,2.935709,-1.111781,-2.08538,-3.998047,-3.312097,1.584274,0.090577,0.896489,0.433708,0.284454,0.112758,-0.960686351816.02,2.887318,-1.067113,-2.099915,-4.336295,-3.596071,1.723125,0.121409,0.875811,0.467136,0.258978,0.186338,-0.730624351816.03,2.849231,-1.017478,-2.108928,-4.803837,-2.786958,1.81483,0.151461,0.850785,0.503214,0.210935,0.208358,-0.41395351816.04,2.826315,-0.96588,-2.113769,-4.864894,-1.638376,1.805481,0.176341,0.82255,0.540662,0.077321,0.134848,-0.130597351816.05,2.809644,-0.917757,-2.118951,-4.333248,-1.204449,1.860057,0.198009,0.794241,0.574434,-0.143017,-0.064306,-0.050432351816.06,2.791638,-0.876077,-2.127476,-3.607601,-1.138903,1.923848,0.219486,0.768233,0.601368,-0.340366,-0.310943,0.06422351816.07,2.772586,-0.839017,-2.137223,-3.192481,-1.205202,1.909519,0.24101,0.743987,0.623216,-0.488401,-0.491423,-0.122117351816.08,2.752395,-0.803584,-2.146369,-3.067274,-1.414535,1.91338,0.263385,0.719849,0.64222,-0.463413,-0.504303,-0.391762351816.09,2.730664,-0.768588,-2.155487,-2.965966,-1.578525,1.995909,0.28717,0.695121,0.659045,-0.334136,-0.605231,-0.551654351816.1,2.707509,-0.734708,-2.165069,-2.778954,-1.702375,2.055574,0.312081,0.670371,0.673208,-0.33474,-0.669974,-0.583287351816.11,2.684343,-0.702582,-2.174638,-2.551488,-1.691329,2.047916,0.336929,0.64619,0.684775,-0.34642,-0.568264,-0.567923351816.12,2.661658,-0.672925,-2.184038,-2.260652,-1.685075,1.984234,0.361067,0.623276,0.693656,-0.337065,-0.469147,-0.513617351816.13,2.639241,-0.646298,-2.19343,-1.935578,-1.677914,1.91017,0.384381,0.602235,0.699688,-0.312756,-0.4563,-0.506848351816.14,2.617535,-0.622886,-2.202992,-1.584363,-1.587849,1.804051,0.406422,0.583381,0.703198,-0.230778,-0.499504,-0.508633351816.15,2.597798,-0.603213,-2.212679,-1.207875,-1.361575,1.663572,0.426077,0.567292,0.704726,-0.157324,-0.490998,-0.473113351816.16,2.580717,-0.587257,-2.222551,-0.847129,-1.091637,1.506808,0.44281,0.55408,0.704922,-0.105942,-0.496417,-0.438747351816.17,2.567121,-0.575012,-2.232654,-0.497666,-0.712968,1.338938,0.456006,0.543845,0.704479,-0.100049,-0.456854,-0.41827351816.19,2.551705,-0.561735,-2.252474,0.139961,-0.001978,0.896029,0.470787,0.532656,0.703305,-0.179421,-0.378893,-0.369732351816.18,2.557638,-0.566462,-2.242734,-0.173465,-0.309937,1.133403,0.465213,0.53665,0.703977,-0.127856,-0.424346,-0.383237351816.2,2.548447,-0.560664,-2.261828,0.423167,0.228273,0.667169,0.473395,0.531749,0.70224,-0.22872,-0.361476,-0.335769351816.21,2.547281,-0.562836,-2.270751,0.665472,0.403313,0.458407,0.473565,0.533587,0.700729,-0.228967,-0.358126,-0.29988351816.22,2.547824,-0.567799,-2.279271,0.869052,0.550907,0.277151,0.471697,0.537778,0.698782,-0.198885,-0.373593,-0.271887351816.23,2.549884,-0.574878,-2.287286,0.999694,0.672268,0.131642,0.468122,0.543732,0.696576,-0.151303,-0.378327,-0.238186351816.24,2.552953,-0.583258,-2.294609,1.0562,0.717242,0.015614,0.463436,0.550746,0.694195,-0.03503,-0.298259,-0.149639351816.25,2.55607,-0.592449,-2.300916,1.065355,0.64289,-0.104737,0.458453,0.558395,0.691387,0.012159,-0.22116,-0.09071351816.26,2.559015,-0.602404,-2.305797,1.060793,0.558812,-0.251871,0.453333,0.566625,0.688059,0.006338,-0.144323,-0.024027351816.28,2.568655,-0.625431,-2.311113,1.135244,0.737908,-0.569953,0.439489,0.585446,0.68125,-0.070318,-0.086637,0.087899351816.27,2.562863,-0.613274,-2.309128,1.073827,0.598309,-0.410972,0.447287,0.575548,0.684601,-0.039999,-0.094454,0.04335351816.29,2.577654,-0.638255,-2.311404,1.22535,0.885026,-0.707353,0.429292,0.595795,0.678776,-0.059327,-0.089722,0.12373351816.3,2.58681,-0.653235,-2.311699,1.313799,0.949233,-0.802873,0.41831,0.607759,0.675015,-0.005224,-0.081788,0.162921351816.31,2.595964,-0.669187,-2.311508,1.378112,0.88893,-0.86833,0.407031,0.620348,0.670443,0.074872,-0.051012,0.236646351816.32,2.603976,-0.685744,-2.310985,1.417317,0.732918,-0.902751,0.396331,0.633249,0.664769,0.144455,-0.016,0.320766351816.33,2.610601,-0.702792,-2.310324,1.473589,0.598259,-0.925343,0.386395,0.646351,0.657974,0.167255,0.018994,0.36229351816.34,2.616683,-0.721156,-2.310036,1.633998,0.606117,-0.961339,0.376374,0.660253,0.649929,0.165603,0.005152,0.341648351816.35,2.623678,-0.740831,-2.310184,1.748897,0.758156,-0.982151,0.365316,0.674901,0.641134,0.19073,0.01118,0.367625351816.36,2.631999,-0.760931,-2.310732,1.794059,0.914969,-0.952335,0.353278,0.689596,0.63218,0.23681,0.128565,0.298636351816.37,2.641557,-0.780299,-2.31105,1.66385,0.996601,-0.916347,0.340752,0.703492,0.623689,0.245522,0.301284,0.363387351816.38,2.651449,-0.794683,-2.308683,0.9906,0.730521,-0.794353,0.329767,0.713642,0.618037,0.353338,0.804364,0.69898351816.39,2.657752,-0.80131,-2.303477,0.292022,0.087477,-0.598832,0.323658,0.718268,0.615903,0.327755,1.386881,0.749225351816.4,2.659753,-0.80921,-2.297041,0.635279,-0.324705,-0.87861,0.319785,0.723742,0.611502,-0.162162,1.157972,0.360208351816.41,2.666306,-0.824549,-2.288422,1.256515,0.248686,-1.335126,0.310654,0.734242,0.603641,-0.437806,0.377849,0.112515351816.42,2.682848,-0.846193,-2.280986,1.855745,1.36924,-1.438998,0.29352,0.748762,0.594307,-0.189806,-0.289519,-0.189476351816.43,2.702103,-0.870088,-2.276439,2.068639,1.573442,-1.258377,0.274331,0.764385,0.583487,0.264671,-0.611248,-0.307944351816.44,2.715282,-0.892129,-2.274869,1.92163,1.080995,-0.947454,0.259586,0.77841,0.57157,0.478298,-0.760801,-0.216544351816.45,2.726422,-0.91098,-2.273659,1.633694,1.085688,-0.836799,0.24724,0.790105,0.560898,0.319929,-0.748845,-0.031403351816.46,2.74542,-0.928242,-2.269595,1.470443,1.793509,-0.949276,0.231242,0.800568,0.552827,0.171682,-0.616471,-0.0533351816.47,2.774239,-0.945447,-2.262687,1.464001,2.500987,-1.046492,0.210238,0.810759,0.546325,0.176435,-0.366972,-0.172438351816.48,2.807925,-0.963108,-2.255282,1.5471,2.856136,-1.000929,0.186999,0.82097,0.539481,0.219953,-0.158662,-0.263617351816.49,2.84216,-0.980857,-2.24903,1.603994,2.946461,-0.854425,0.1641,0.830974,0.531557,0.223916,0.012913,-0.308077351816.5,2.874857,-0.998735,-2.244428,1.679607,2.886355,-0.711573,0.142695,0.840787,0.522222,0.176579,0.184284,-0.338491351816.51,2.904015,-1.016586,-2.241618,1.709641,2.628081,-0.561044,0.123858,0.850316,0.511489,0.109541,0.352702,-0.381973351816.52,2.930488,-1.03378,-2.239713,1.64759,2.488112,-0.461861,0.107195,0.859239,0.500217,0.064924,0.531294,-0.263706351816.53,2.957251,-1.050292,-2.237148,1.599515,2.480793,-0.460122,0.091158,0.867568,0.488892,0.074598,0.612565,-0.187119351816.55,3.023334,-1.085138,-2.218785,1.751301,2.540543,-0.901027,0.055074,0.884368,0.463531,0.067561,0.240068,-0.176131351816.54,2.987138,-1.067048,-2.231351,1.636094,2.515893,-0.629682,0.074261,0.875779,0.476966,0.117695,0.500609,-0.167807351816.56,3.064288,-1.103826,-2.201347,1.810917,2.581309,-1.006338,0.034766,0.892936,0.448839,0.092019,-0.002342,-0.151994351816.57,3.10914,-1.122746,-2.180472,1.871169,2.649184,-1.039118,0.014056,0.901294,0.432981,0.14401,-0.139651,-0.145658351816.58,-3.126642,-1.14184,-2.156932,1.93168,2.611869,-1.010715,-0.006218,0.9094,0.415875,0.157234,-0.222526,-0.191724351816.59,-3.079963,-1.161044,-2.132565,1.985623,2.40878,-0.892177,-0.024537,0.917219,0.397626,0.122376,-0.272932,-0.253507351816.6,-3.034699,-1.180279,-2.108005,2.021584,2.254799,-0.772877,-0.040613,0.924712,0.378494,0.074015,-0.228957,-0.227462351816.61,-2.988325,-1.199298,-2.081946,2.022065,2.246744,-0.695971,-0.05542,0.931784,0.358757,0.018143,-0.165717,-0.145637351816.62,-2.942101,-1.217872,-2.056524,1.994191,2.27886,-0.516929,-0.068496,0.938366,0.338788,-0.013886,-0.189373,-0.065778351816.63,-2.895984,-1.236383,-2.032007,2.017874,2.327669,-0.373792,-0.079804,0.944603,0.318365,-0.020293,-0.138329,-0.030264351816.64,-2.847196,-1.255564,-2.004739,2.12844,2.31812,-0.316208,-0.089961,0.950724,0.296698,-0.032231,-0.045283,0.010141351816.65,-2.792209,-1.275399,-1.972093,2.238753,2.439427,-0.308139,-0.099656,0.956687,0.273531,-0.02539,-0.014105,0.047956351816.66,-2.727036,-1.295321,-1.930075,2.328182,2.525097,-0.381292,-0.109559,0.962296,0.248964,-0.020263,0.014373,-0.021699351816.67,-2.648896,-1.314359,-1.874989,2.375945,2.50289,-0.501464,-0.119971,0.9673,0.223468,-0.029596,0.047211,-0.104618351816.68,-2.55798,-1.331734,-1.805411,2.384566,2.307069,-0.606503,-0.130482,0.97156,0.197597,-0.028621,0.067472,-0.183025351816.69,-2.455289,-1.3464,-1.721003,2.328826,1.998326,-0.722439,-0.141006,0.974928,0.172139,-0.01883,0.05887,-0.203526351816.7,-2.3463,-1.357442,-1.629331,2.108883,1.984008,-0.723247,-0.151196,0.977326,0.148234,0.029141,-0.082383,-0.082941351816.71,-2.236614,-1.365118,-1.53795,1.915537,2.053116,-0.671756,-0.16061,0.978923,0.126154,0.056957,-0.185221,-0.027399351816.72,-2.125314,-1.37084,-1.444612,1.877356,1.992964,-0.587554,-0.168863,0.980075,0.104583,0.064111,-0.224979,0.000123351816.73,-2.01339,-1.375182,-1.351189,1.819184,2.078074,-0.474071,-0.17564,0.980928,0.083245,0.099575,-0.250673,0.036384351816.74,-1.901403,-1.378036,-1.259075,1.752836,2.20247,-0.391742,-0.181195,0.981479,0.062187,0.130841,-0.236179,0.033471351816.75,-1.792072,-1.379587,-1.17045,1.647745,2.291948,-0.282951,-0.185413,0.981775,0.04171,0.138416,-0.221033,0.028251351816.76,-1.689622,-1.380066,-1.091082,1.458938,2.522313,-0.191334,-0.18824,0.981866,0.022474,0.226799,-0.228845,0.066607351816.77,-1.593549,-1.379408,-1.018693,1.359383,2.50893,-0.159062,-0.190173,0.981741,0.004328,0.217074,-0.204474,-0.006525351816.78,-1.501413,-1.377383,-0.949844,1.328464,2.47262,-0.181644,-0.191747,0.981354,-0.013325,0.196538,-0.140564,-0.020412351816.79,-1.412012,-1.373632,-0.883801,1.325773,2.48823,-0.244712,-0.193426,0.980626,-0.030974,0.147298,-0.08907,0.004072351816.8,-1.327639,-1.36861,-0.82319,1.268298,2.531029,-0.247479,-0.194904,0.97963,-0.048349,0.084888,-0.088562,0.037424351816.81,-1.251099,-1.363573,-0.771246,1.124981,2.604398,-0.174209,-0.195319,0.978606,-0.064661,0.000052,-0.098189,0.083826351816.82,-1.182497,-1.358599,-0.727623,1.009581,2.614444,-0.153891,-0.19493,0.97757,-0.07974,-0.092714,-0.046876,0.126142351816.83,-1.119968,-1.353534,-0.690454,0.910265,2.660749,-0.126068,-0.19402,0.976491,-0.093921,-0.166087,-0.025762,0.183749351816.84,-1.061989,-1.34903,-0.658077,0.819111,2.663503,-0.067078,-0.192091,0.97551,-0.107147,-0.22162,-0.020249,0.186203351816.85,-1.008346,-1.344294,-0.629734,0.788135,2.595157,-0.097038,-0.189976,0.974458,-0.119755,-0.215267,0.012084,0.148579351816.86,-0.959122,-1.338926,-0.604326,0.780352,2.428597,-0.133973,-0.188133,0.973238,-0.131959,-0.178215,-0.014483,0.103456351816.87,-0.914187,-1.33354,-0.581654,0.738013,2.267822,-0.113568,-0.186164,0.971987,-0.143474,-0.106804,-0.0609,0.095486351816.88,-0.871992,-1.328663,-0.560207,0.698552,2.118014,-0.042988,-0.183574,0.970829,-0.154247,-0.027684,-0.084583,0.096523351816.89,-0.831113,-1.324396,-0.53908,0.664634,2.042882,0.03489,-0.180176,0.969797,-0.164412,0.042434,-0.074869,0.117766351816.9,-0.790311,-1.320548,-0.51814,0.635585,2.090219,0.088948,-0.17597,0.968851,-0.174249,0.079748,-0.075525,0.145669351816.91,-0.749269,-1.317089,-0.498171,0.585605,2.223887,0.126546,-0.170953,0.967989,-0.183775,0.112863,-0.081789,0.159208351816.92,-0.709186,-1.314053,-0.479943,0.522632,2.262561,0.144032,-0.165364,0.967222,-0.192707,0.149175,-0.062513,0.144855351816.93,-0.671775,-1.311179,-0.463549,0.4838,2.13574,0.138738,-0.159771,0.966488,-0.200932,0.16296,-0.037091,0.112935351816.94,-0.637826,-1.308381,-0.449122,0.442807,1.979001,0.122839,-0.154468,0.965766,-0.208411,0.131488,0.011925,0.123587351816.95,-0.607235,-1.305576,-0.436646,0.412652,1.840274,0.093099,-0.149566,0.965035,-0.215262,0.087173,0.043007,0.154852351816.96,-0.579446,-1.302657,-0.426208,0.397743,1.775043,0.056863,-0.14507,0.964265,-0.221691,0.046376,0.046355,0.202389351816.97,-0.553658,-1.299495,-0.417971,0.383377,1.820576,-0.001059,-0.140907,0.963423,-0.22795,0.018074,0.042772,0.288467351816.98,-0.530192,-1.296203,-0.413529,0.328033,1.981175,-0.093854,-0.137123,0.962536,-0.233929,-0.016853,0.059315,0.37843351816.99,-0.510647,-1.293198,-0.414945,0.21313,2.14389,-0.216005,-0.133938,0.961716,-0.239086,-0.048038,0.060119,0.441845351817,-0.49613,-1.290999,-0.422699,0.044491,2.237547,-0.321332,-0.13146,0.961111,-0.242865,-0.084269,0.06199,0.476507351817.01,-0.486776,-1.290083,-0.436687,-0.150997,2.323933,-0.407651,-0.129594,0.960858,-0.244862,-0.137725,0.068897,0.474293351817.03,-0.474191,-1.291646,-0.474847,-0.379648,2.564487,-0.410374,-0.125817,0.96129,-0.245137,-0.254341,0.016554,0.332768351817.02,-0.480598,-1.290398,-0.455265,-0.301781,2.458434,-0.453151,-0.127939,0.960945,-0.245389,-0.197592,0.054619,0.425535351817.04,-0.466341,-1.293804,-0.492903,-0.432741,2.520391,-0.323148,-0.122955,0.961882,-0.244263,-0.287873,0.04532,0.203263351817.05,-0.458088,-1.296932,-0.508718,-0.495076,2.303659,-0.2216,-0.119604,0.962733,-0.24257,-0.283457,0.141866,0.092591351817.06,-0.451684,-1.301594,-0.523119,-0.634749,1.948516,-0.120307,-0.116088,0.963983,-0.23929,-0.233918,0.279608,0.033861351817.07,-0.451095,-1.308386,-0.539495,-0.868999,1.559044,-0.094478,-0.11309,0.965768,-0.233461,-0.14811,0.442207,0.013322351817.08,-0.460567,-1.317222,-0.5629,-1.13101,1.26179,-0.170606,-0.111499,0.968022,-0.224725,-0.053983,0.570369,0.059259351817.09,-0.480734,-1.328155,-0.595859,-1.431767,1.185394,-0.244538,-0.111107,0.970707,-0.213034,0.000633,0.563076,0.167426351817.1,-0.511914,-1.341493,-0.640393,-1.765377,1.231883,-0.292434,-0.111342,0.973825,-0.198162,0.044585,0.510291,0.223003351817.11,-0.556292,-1.356964,-0.697697,-2.060361,1.118581,-0.2968,-0.112054,0.977225,-0.18021,0.096902,0.456399,0.121021351817.12,-0.616854,-1.374534,-0.768639,-2.360982,0.81823,-0.202416,-0.112804,0.980802,-0.159066,0.15118,0.304659,0.008644351817.13,-0.699127,-1.395206,-0.858667,-2.793517,0.570114,0.001705,-0.112421,0.984624,-0.133708,0.258097,0.100612,0.035945351817.15,-0.966303,-1.458878,-1.136113,-4.007359,0.21459,0.588003,-0.091893,0.993744,-0.063476,0.41982,-0.044845,0.032439351817.14,-0.820036,-1.419897,-0.985305,-3.386585,0.353822,0.278003,-0.109915,0.988636,-0.102553,0.363501,-0.027775,0.065001351817.16,-1.324442,-1.485442,-1.499274,-4.447791,0.406598,0.914582,-0.082677,0.99636,-0.02079,0.512364,0.005166,-0.014336351817.18,-2.401714,-1.483529,-2.60356,-4.14156,1.753631,1.431034,-0.058761,0.996195,0.064369,0.799117,0.229834,-0.119194351817.17,-1.885381,-1.495407,-2.070103,-4.511795,0.985363,1.185615,-0.071622,0.99716,0.023305,0.646054,0.086504,-0.059087351817.19,-2.716294,-1.46049,-2.942507,-3.640536,2.460089,1.569938,-0.045419,0.993922,0.100276,0.846918,0.427113,-0.216487351817.2,-2.891074,-1.434451,3.13735,-3.178488,2.769409,1.447038,-0.033696,0.990719,0.13168,0.793706,0.630084,-0.406369351817.21,-2.980908,-1.408646,3.018295,-2.824042,2.787932,1.155375,-0.02583,0.986882,0.159361,0.613873,0.782984,-0.537016351817.22,-3.035487,-1.384125,2.938681,-2.578433,2.242615,1.028904,-0.019655,0.982627,0.184545,0.384615,0.624352,-0.765386351817.23,-3.077408,-1.360886,2.878009,-2.414846,1.641611,0.99905,-0.013365,0.97805,0.207943,0.243193,0.46003,-0.86105351817.24,-3.11287,-1.336934,2.829459,-2.482827,1.013384,0.945904,-0.006655,0.972779,0.23164,0.093264,0.375412,-0.773511351817.25,3.135628,-1.311558,2.788583,-2.600699,0.35175,0.985318,0.001529,0.966586,0.25634,-0.036762,0.303327,-0.745582351817.26,3.105075,-1.285467,2.754771,-2.603152,0.203363,0.957984,0.010276,0.959569,0.281285,-0.089408,0.306758,-0.467748351817.27,3.085165,-1.259816,2.730697,-2.537322,0.374914,0.794674,0.017257,0.952034,0.305505,-0.110275,0.307045,-0.306757351817.28,3.074869,-1.234487,2.712045,-2.502139,0.893886,0.75497,0.022003,0.943979,0.329271,-0.094192,0.183935,-0.197603351817.29,3.070419,-1.209929,2.693915,-2.394168,1.363131,0.811082,0.025109,0.935591,0.352192,-0.028497,-0.021757,-0.168675351817.3,3.066293,-1.186883,2.67415,-2.216486,1.433725,0.9256,0.028177,0.927206,0.373491,0.027243,-0.203741,-0.282655351817.31,3.059203,-1.165879,2.652378,-1.98727,1.262053,1.030624,0.03242,0.919135,0.392607,0.028539,-0.326117,-0.384901351817.32,3.049625,-1.14703,2.629613,-1.755662,1.099778,1.104675,0.037764,0.911547,0.409459,0.010363,-0.36838,-0.397298351817.33,3.03823,-1.130332,2.606159,-1.520643,0.966192,1.16372,0.043991,0.904554,0.424084,-0.035858,-0.394162,-0.36517351817.34,3.025802,-1.115738,2.582504,-1.291652,0.87829,1.192678,0.050778,0.898235,0.436572,-0.058957,-0.401485,-0.346209351817.35,3.013648,-1.103237,2.559556,-1.074897,0.839128,1.165858,0.057508,0.892671,0.447025,-0.065168,-0.392534,-0.323932351817.36,3.002566,-1.092434,2.537749,-0.907031,0.844839,1.131002,0.063792,0.88775,0.455885,-0.064463,-0.371209,-0.313169351817.37,2.992349,-1.08313,2.516507,-0.74457,0.870946,1.115256,0.069671,0.883429,0.463357,-0.058426,-0.363455,-0.286538351817.38,2.983131,-1.075723,2.496032,-0.529514,0.903074,1.06258,0.07497,0.879934,0.469144,-0.04462,-0.354055,-0.238172351817.39,2.975674,-1.070932,2.476435,-0.253202,1.015962,0.992042,0.079161,0.877648,0.472724,-0.029036,-0.362969,-0.144706351817.4,2.970408,-1.069242,2.457585,0.070382,1.180866,0.904675,0.081903,0.876836,0.473762,-0.023217,-0.412389,-0.07183351817.41,2.967883,-1.071191,2.439743,0.430558,1.372148,0.788718,0.082803,0.877772,0.471869,-0.004296,-0.426371,-0.006583351817.42,2.967948,-1.076529,2.422741,0.747912,1.562588,0.689474,0.081962,0.880317,0.467253,0.00364,-0.438697,0.014025351817.43,2.970164,-1.084827,2.406055,1.029833,1.755443,0.61981,0.079677,0.884223,0.46022,0.011632,-0.448966,0.02617351817.44,2.974209,-1.095761,2.389556,1.275342,1.922833,0.554177,0.076199,0.889276,0.450978,0.018115,-0.429346,0.033473351817.45,2.980512,-1.109124,2.37411,1.500783,2.058009,0.443621,0.071443,0.895309,0.43968,0.030501,-0.406158,0.041552351817.46,2.9897,-1.124949,2.360837,1.722088,2.147092,0.292594,0.065248,0.902245,0.426258,0.033797,-0.386743,0.032314351817.47,3.001835,-1.142946,2.350268,1.903727,2.202209,0.148809,0.057799,0.90986,0.41087,0.049134,-0.370675,0.024905351817.48,3.016875,-1.162517,2.342397,2.026453,2.258731,0.033324,0.049389,0.917805,0.393947,0.080632,-0.3606,0.045262351817.49,3.035049,-1.183051,2.336821,2.098937,2.389254,-0.03691,0.040208,0.925764,0.375958,0.120421,-0.354216,0.103168351817.5,3.05652,-1.20426,2.332916,2.156396,2.582991,-0.065825,0.030452,0.933574,0.357088,0.157659,-0.35287,0.184629351817.51,3.081745,-1.225851,2.330708,2.184007,2.805654,-0.086545,0.020225,0.941094,0.337539,0.180535,-0.351494,0.253342351817.52,3.11046,-1.247572,2.330704,2.186626,2.915393,-0.100735,0.009887,0.948216,0.317472,0.176987,-0.329716,0.268496351817.53,3.140554,-1.269083,2.332125,2.158511,2.880487,-0.067774,0.000309,0.954829,0.297156,0.155331,-0.286158,0.238778351817.54,-3.11379,-1.290019,2.33399,2.092226,2.66456,-0.010041,-0.007703,0.96084,0.276995,0.12042,-0.21438,0.196378351817.55,-3.088694,-1.309805,2.335636,1.958005,2.257965,0.050881,-0.013643,0.966135,0.257677,0.071474,-0.105539,0.158888351817.56,-3.069302,-1.327797,2.336321,1.759438,1.763034,0.110441,-0.017379,0.970621,0.239986,0.030319,0.04122,0.142964351817.57,-3.056035,-1.343452,2.335609,1.50455,1.297988,0.149132,-0.01926,0.974268,0.224566,0.005756,0.200063,0.157239351817.58,-3.048105,-1.356144,2.333195,1.185091,0.963141,0.17512,-0.019885,0.977051,0.212077,0.007189,0.372513,0.216573351817.59,-3.04597,-1.365007,2.326928,0.762489,0.81006,0.232759,-0.01951,0.9789,0.203406,0.020227,0.523953,0.300439351817.6,-3.050423,-1.36863,2.314101,0.190841,0.826042,0.316346,-0.018281,0.979634,0.199958,0.055253,0.609081,0.451607351817.61,-3.061566,-1.366211,2.293686,-0.440443,0.93084,0.422635,-0.016241,0.979145,0.202511,0.072119,0.574367,0.607868351817.62,-3.077176,-1.357751,2.266876,-1.027587,1.11434,0.51519,-0.013611,0.977392,0.210999,0.089538,0.41392,0.748031351817.63,-3.092234,-1.345344,2.239359,-1.336991,1.199563,0.533588,-0.01103,0.974693,0.223275,0.104352,0.223412,0.752128351817.64,-3.106863,-1.332567,2.212872,-1.281085,1.086609,0.571789,-0.008194,0.971757,0.23584,0.175186,0.009505,0.516937351817.65,-3.122014,-1.322111,2.187079,-0.988121,0.98255,0.603489,-0.004819,0.969237,0.246083,0.275525,-0.129302,0.094325351817.66,-3.135168,-1.315079,2.162203,-0.626856,1.171519,0.630627,-0.001625,0.967482,0.252934,0.440224,-0.072585,-0.230076351817.67,3.134403,-1.311608,2.134021,-0.257517,1.411136,0.746305,0.001843,0.966598,0.256289,0.61182,0.24231,-0.399844351817.68,3.123892,-1.310794,2.108988,-0.030198,1.3754,0.589302,0.00455,0.966389,0.257042,0.627469,0.597362,-0.611199351817.69,3.121877,-1.310652,2.093484,-0.017102,1.25762,0.346326,0.005071,0.966353,0.25717,0.541087,0.661333,-0.548689351817.7,3.12417,-1.309278,2.087677,-0.187263,0.590005,0.086332,0.004504,0.965998,0.258509,0.351498,0.409246,-0.397455351817.71,3.127797,-1.305997,2.092502,-0.369825,-0.308031,-0.19336,0.00361,0.965145,0.261691,0.206381,0.140507,-0.286929351817.72,3.140253,-1.303285,2.107461,-0.202496,-0.002997,-0.452287,0.000354,0.964432,0.264332,0.052472,-0.060333,-0.121036351817.73,-3.113049,-1.305239,2.125332,0.351243,1.745307,-0.459155,-0.00749,0.964946,0.26234,-0.241091,-0.235378,0.047398351817.74,-3.068021,-1.312277,2.143278,0.840096,3.040874,-0.420374,-0.018792,0.96677,0.254958,-0.482063,-0.360858,-0.262358351817.75,-3.020151,-1.322474,2.160057,1.123447,3.172145,-0.275221,-0.029774,0.969326,0.243968,-0.467601,-0.291912,-0.768428351817.76,-2.97774,-1.336122,2.174416,1.295206,2.713529,-0.039567,-0.03793,0.97259,0.229412,-0.286381,-0.215403,-0.943523351817.77,-2.947636,-1.350336,2.182959,1.496853,2.02381,0.086004,-0.042149,0.975797,0.214579,-0.150661,-0.143506,-0.879099351817.78,-2.921217,-1.365888,2.194318,1.59398,1.386866,0.077035,-0.044479,0.97908,0.198557,-0.063095,-0.00769,-0.714777351817.79,-2.894102,-1.380175,2.212355,1.424294,0.824574,-0.050873,-0.046415,0.981887,0.183696,-0.015063,0.175187,-0.552562351817.8,-2.86368,-1.391182,2.237245,1.121214,0.554759,-0.191508,-0.049013,0.983913,0.171796,0.079057,0.37769,-0.297666351817.81,-2.822656,-1.400215,2.272333,1.056972,0.729747,-0.375183,-0.053228,0.985486,0.161195,0.169897,0.408038,-0.060792351817.82,-2.75553,-1.408913,2.328212,1.177604,1.405962,-0.64098,-0.060691,0.986925,0.149315,0.253317,0.359235,0.099739351817.84,-2.525047,-1.423421,2.512187,1.367605,3.126482,-0.992617,-0.084907,0.98916,0.119806,0.265648,0.104621,0.154929351817.83,-2.654962,-1.416986,2.409911,1.317739,2.209151,-0.885635,-0.071646,0.988194,0.13542,0.291892,0.249217,0.16855351817.85,-2.384895,-1.427823,2.616986,1.284752,3.835622,-0.856679,-0.097821,0.989797,0.103603,0.258435,-0.132939,0.125767351817.86,-2.250147,-1.430838,2.711985,1.169043,4.162521,-0.641926,-0.10853,0.990222,0.087647,0.233423,-0.277789,0.055846351817.87,-2.124969,-1.433345,2.797247,1.099872,4.057411,-0.427593,-0.116512,0.990568,0.072105,0.223202,-0.293623,-0.082908351817.88,-2.011999,-1.435766,2.873276,1.004373,3.70057,-0.236219,-0.121729,0.990897,0.057487,0.183512,-0.255775,-0.221366351817.9,-1.820769,-1.44097,3.001478,0.701858,2.950351,0.050636,-0.125438,0.991584,0.032026,-0.002949,-0.080604,-0.313688351817.89,-1.913749,-1.438206,2.938289,0.863046,3.317058,-0.067587,-0.124504,0.991223,0.044456,0.106376,-0.172268,-0.298316351817.91,-1.751343,-1.443166,3.044815,0.562439,2.574667,0.107148,-0.125215,0.991866,0.022856,-0.095488,-0.007247,-0.308424351817.93,-1.633744,-1.445934,3.118431,0.475944,2.128783,0.044746,-0.124292,0.992215,0.007834,-0.151343,0.06174,-0.127326351817.92,-1.691542,-1.444934,3.0817,0.474982,2.274153,0.09982,-0.124616,0.99209,0.01512,-0.149477,0.040747,-0.256713351817.94,-1.570943,-1.446194,-3.123144,0.539555,2.210418,-0.002995,-0.12428,0.992247,0.000018,-0.134173,0.033159,0.021237351817.95,-1.503315,-1.445817,-3.079734,0.5431,2.578189,-0.021161,-0.12437,0.9922,-0.008405,-0.133213,0.017565,0.18881351817.96,-1.434238,-1.44494,-3.038797,0.514721,2.965216,-0.043936,-0.124356,0.992091,-0.017088,-0.161701,0.01148,0.270262351817.97,-1.365996,-1.44338,-3.00185,0.482905,3.247638,-0.084575,-0.124416,0.991894,-0.025843,-0.201328,0.040226,0.261698351817.99,-1.243617,-1.438326,-2.945428,0.38583,3.334641,-0.198867,-0.125077,0.991239,-0.042448,-0.231018,0.151172,0.180845351817.98,-1.301542,-1.441204,-2.970326,0.437753,3.36584,-0.13124,-0.124574,0.991615,-0.034377,-0.224471,0.089089,0.226714351818,-1.194468,-1.434504,-2.927935,0.347595,3.157036,-0.310776,-0.126362,0.990727,-0.049934,-0.19955,0.187786,0.155158351818.02,-1.115835,-1.425384,-2.906904,0.300481,2.758202,-0.334538,-0.130161,0.989446,-0.063673,-0.055035,0.106867,0.124739351818.01,-1.1529,-1.429838,-2.916106,0.330363,2.968976,-0.379761,-0.128402,0.990082,-0.057017,-0.152238,0.200073,0.125727351818.03,-1.084761,-1.422118,-2.900522,0.206617,2.3998,-0.222158,-0.130977,0.988968,-0.069196,0.056834,-0.016754,0.083798351818.04,-1.061294,-1.420334,-2.898041,0.09461,2.028612,-0.116304,-0.130857,0.988702,-0.07311,0.10893,-0.087136,0.032614351818.05,-1.042772,-1.419528,-2.897483,0.035539,1.745506,-0.055101,-0.130168,0.988581,-0.075923,0.093257,-0.08935,0.028651351818.06,-1.027438,-1.419207,-2.897564,0.010914,1.489864,-0.020374,-0.129261,0.988532,-0.078074,0.059986,-0.059959,0.039149351818.07,-1.013641,-1.419227,-2.897144,0.006881,1.311976,0.008959,-0.128155,0.988535,-0.07984,0.019542,-0.045512,0.076345351818.08,-0.998238,-1.419127,-2.894506,0.050579,1.302285,0.01364,-0.126993,0.98852,-0.081857,-0.025336,-0.025874,0.141885351818.09,-0.978136,-1.418624,-2.888138,0.133228,1.424661,0.00972,-0.125734,0.988444,-0.084671,-0.062117,-0.027308,0.176224351818.1,-0.952205,-1.417427,-2.876585,0.242326,1.463743,-0.001192,-0.12446,0.988262,-0.088589,-0.088705,-0.026912,0.139248351818.11,-0.923177,-1.415561,-2.861085,0.3231,1.344032,-0.009734,-0.123307,0.987975,-0.093276,-0.09854,-0.021026,0.065551351818.12,-0.894001,-1.41344,-2.843673,0.350133,1.164892,0.003857,-0.122167,0.987645,-0.098146,-0.090236,-0.03069,0.050645351818.13,-0.865716,-1.411493,-2.825918,0.339928,1.067036,0.0393,-0.120807,0.987338,-0.102808,-0.050901,-0.102511,0.133264351818.14,-0.836241,-1.409856,-2.806827,0.340658,1.079089,0.091589,-0.118924,0.987077,-0.107406,-0.017063,-0.126283,0.14154351818.15,-0.804001,-1.408485,-2.784977,0.358284,1.067722,0.157978,-0.116374,0.986856,-0.112123,0.039088,-0.118555,0.08188351818.16,-0.769469,-1.407433,-2.759958,0.363771,0.960471,0.233093,-0.113156,0.986686,-0.11682,0.08627,-0.085883,0.020354351818.17,-0.733847,-1.40682,-2.732297,0.351994,0.799951,0.308219,-0.109328,0.986586,-0.121224,0.117385,-0.023863,-0.025596351818.18,-0.697616,-1.406589,-2.702612,0.335118,0.674534,0.367177,-0.105012,0.986548,-0.12528,0.126451,0.026529,-0.024104351818.19,-0.660361,-1.406536,-2.671453,0.324118,0.660941,0.405562,-0.100305,0.98654,-0.129145,0.117548,0.061678,-0.010335351818.2,-0.621342,-1.406446,-2.639054,0.329535,0.732517,0.428883,-0.095242,0.986525,-0.133032,0.107144,0.090944,-0.012613351818.21,-0.580456,-1.406104,-2.605441,0.346726,0.789059,0.440607,-0.089911,0.986469,-0.137096,0.086843,0.113278,-0.029484351818.22,-0.539057,-1.4055,-2.57129,0.35299,0.768841,0.450332,-0.084465,0.98637,-0.141211,0.052574,0.140828,-0.034753351818.23,-0.497913,-1.404728,-2.536891,0.351648,0.712395,0.461169,-0.078949,0.986242,-0.145235,0.01532,0.163187,-0.030272351818.24,-0.457086,-1.403731,-2.502289,0.35783,0.666579,0.469903,-0.073389,0.986077,-0.149218,-0.008321,0.202567,-0.017713351818.25,-0.416199,-1.402459,-2.4674,0.365183,0.654895,0.480681,-0.067736,0.985865,-0.153241,-0.032713,0.277365,-0.011783351818.26,-0.375204,-1.401158,-2.432829,0.337532,0.714779,0.495207,-0.061868,0.985646,-0.157081,-0.087881,0.361431,-0.017907351818.27,-0.334248,-1.400066,-2.398749,0.295919,0.745897,0.507562,-0.055738,0.985461,-0.1605,-0.148394,0.444562,-0.039482351818.28,-0.296395,-1.399053,-2.367623,0.25238,0.714807,0.461363,-0.049916,0.985288,-0.163448,-0.140819,0.542422,-0.038289351818.29,-0.263955,-1.398117,-2.341468,0.201449,0.65586,0.390626,-0.044829,0.985128,-0.165872,-0.073625,0.571558,-0.016273351818.3,-0.23704,-1.397623,-2.319994,0.116067,0.550202,0.337881,-0.040463,0.985043,-0.167491,-0.012165,0.537204,-0.003514351818.31,-0.214976,-1.39808,-2.30211,-0.009068,0.414927,0.306235,-0.036662,0.985122,-0.167903,0.033213,0.506166,0.018581351818.32,-0.197068,-1.399913,-2.287038,-0.168481,0.271296,0.287127,-0.033296,0.985435,-0.166762,0.061402,0.455193,0.047728351818.33,-0.183485,-1.403235,-2.274686,-0.32904,0.094578,0.262771,-0.03043,0.985994,-0.163978,0.075352,0.403227,0.076103351818.34,-0.174382,-1.408005,-2.264641,-0.483464,-0.143957,0.246129,-0.02812,0.986779,-0.159616,0.087293,0.343193,0.111367351818.35,-0.168861,-1.414579,-2.255654,-0.683021,-0.402431,0.261187,-0.026147,0.987823,-0.15337,0.08732,0.280076,0.1823351818.36,-0.163812,-1.423618,-2.244845,-0.938359,-0.617732,0.334354,-0.023915,0.989189,-0.144684,0.068532,0.206581,0.295731351818.37,-0.155342,-1.435559,-2.229005,-1.226787,-0.760213,0.442247,-0.02086,0.990869,-0.133202,0.014573,0.149588,0.398568351818.38,-0.139156,-1.450703,-2.204248,-1.547287,-0.872615,0.571124,-0.016618,0.992797,-0.118647,-0.049575,0.150773,0.479517351818.39,-0.112062,-1.469461,-2.167222,-1.922115,-1.020257,0.667602,-0.011313,0.99487,-0.100527,-0.096765,0.237277,0.533846351818.4,-0.069027,-1.492043,-2.112005,-2.32469,-1.27906,0.709719,-0.005426,0.996901,-0.078484,-0.150397,0.382631,0.535333351818.41,0.001963,-1.518635,-2.025468,-2.775899,-1.650433,0.633232,0.000102,0.99864,-0.052138,-0.227001,0.572069,0.502821351818.42,0.202759,-1.54924,-1.805025,-3.255311,-2.073595,0.446678,0.00434,0.999768,-0.021113,-0.307502,0.724796,0.445566351818.43,2.672703,-1.555255,0.688071,-3.618794,-2.384263,0.225559,0.007023,0.999879,0.013863,-0.341068,0.815032,0.367973351818.44,2.977907,-1.51975,1.017059,-3.701307,-2.357785,-0.012282,0.008315,0.998697,0.050342,-0.313826,0.833135,0.219265351818.45,3.060484,-1.484997,1.120545,-3.500905,-1.964973,-0.373689,0.006943,0.996321,0.085413,-0.266953,0.806703,-0.008523351818.46,3.117952,-1.452627,1.19499,-3.21905,-1.601695,-0.646731,0.002787,0.993026,0.117861,-0.179697,0.704041,-0.326144351818.47,-3.127626,-1.423413,1.247267,-2.859434,-1.400303,-0.680506,-0.002051,0.989159,0.146836,-0.050973,0.601997,-0.612519351818.48,-3.106133,-1.396646,1.28266,-2.650414,-1.34189,-0.624404,-0.006143,0.984874,0.173162,0.069497,0.477925,-0.846289351818.49,-3.095605,-1.369503,1.306617,-2.774907,-1.342037,-0.532596,-0.009191,0.979809,0.199726,0.157934,0.290669,-0.974231351818.5,-3.108539,-1.337967,1.310527,-3.328577,-1.826047,-0.076829,-0.007625,0.973017,0.230605,0.159328,-0.004451,-1.125716351818.51,3.138869,-1.300233,1.296801,-3.963784,-2.415362,0.384952,0.000728,0.963621,0.267273,0.190663,0.068698,-1.036926351818.52,3.09633,-1.256124,1.280911,-4.606418,-2.837541,0.626206,0.014004,0.950898,0.309188,0.250568,0.211639,-0.829726351818.53,3.054024,-1.205107,1.267522,-5.254581,-3.054034,0.845434,0.031274,0.933877,0.356223,0.326911,0.255438,-0.599982351818.54,3.011953,-1.149579,1.257744,-5.590195,-3.433788,1.016631,0.052858,0.912592,0.405441,0.450835,0.27799,-0.517211351818.55,2.971641,-1.093189,1.252289,-5.554959,-3.541001,1.111225,0.077744,0.888097,0.453033,0.5289,0.131007,-0.25737351818.56,2.936741,-1.040624,1.250132,-5.023148,-3.28797,1.056372,0.102867,0.86272,0.495109,0.362725,0.030087,-0.093497351818.57,2.908182,-0.994845,1.251028,-4.36509,-2.776557,0.938842,0.125972,0.838674,0.529864,0.073598,-0.018896,-0.031604351818.58,2.887172,-0.954454,1.251663,-3.848096,-1.996156,0.971954,0.145488,0.815998,0.559446,-0.20164,-0.20998,-0.085478351818.59,2.866579,-0.916305,1.248684,-3.628777,-1.856315,1.266007,0.165314,0.793358,0.58588,-0.453812,-0.611687,-0.471256351818.6,2.83986,-0.877903,1.24132,-3.579201,-2.179402,1.634723,0.189825,0.769401,0.609908,-0.53472,-0.972801,-0.629867351818.61,2.811434,-0.839746,1.232804,-3.429571,-2.214358,1.739706,0.216448,0.744473,0.631593,-0.366564,-0.762708,-0.414033351818.62,2.784247,-0.80336,1.224477,-3.220291,-2.095204,1.78922,0.242855,0.719693,0.650433,-0.32063,-0.477444,-0.314389351818.63,2.757858,-0.767829,1.216475,-3.104368,-2.105854,1.843651,0.269341,0.694575,0.667099,-0.358651,-0.421976,-0.439514351818.64,2.731217,-0.733437,1.208875,-2.936021,-2.172369,1.854931,0.296374,0.669427,0.681198,-0.311099,-0.423272,-0.486755351818.65,2.705597,-0.701049,1.202024,-2.700561,-2.111526,1.799142,0.322717,0.64502,0.692678,-0.26127,-0.486374,-0.493108351818.66,2.681991,-0.671604,1.196093,-2.391633,-1.959663,1.665774,0.347254,0.622242,0.701591,-0.179163,-0.516483,-0.506431351818.67,2.661567,-0.646223,1.191067,-2.0015,-1.625051,1.462089,0.368686,0.602175,0.708136,-0.085635,-0.452853,-0.464254351818.68,2.645453,-0.624831,1.186716,-1.651157,-1.330719,1.279534,0.386093,0.58496,0.71327,-0.085327,-0.452163,-0.552976351818.69,2.631625,-0.607986,1.182816,-1.228007,-1.094533,1.039064,0.400672,0.571215,0.716362,-0.093422,-0.424563,-0.53878351818.7,2.621228,-0.595836,1.179178,-0.815269,-0.759076,0.809947,0.41152,0.561201,0.718126,-0.092519,-0.482725,-0.483995351818.71,2.613893,-0.588182,1.175515,-0.416708,-0.467174,0.601127,0.418927,0.55485,0.718778,-0.119015,-0.513697,-0.461759351818.72,2.608978,-0.584745,1.171536,-0.037717,-0.213414,0.423215,0.42342,0.551987,0.71835,-0.127338,-0.502594,-0.415554351818.73,2.605948,-0.584928,1.16727,0.269445,-0.024431,0.256618,0.425544,0.552139,0.716976,-0.122885,-0.470382,-0.367413351818.74,2.604555,-0.588042,1.163399,0.484705,0.096446,0.071274,0.42566,0.554733,0.714902,-0.115326,-0.401398,-0.305905351818.75,2.603936,-0.593562,1.160535,0.635592,0.092645,-0.129202,0.424528,0.559317,0.711998,-0.107893,-0.337958,-0.257713351818.76,2.603529,-0.601168,1.158798,0.766994,0.04421,-0.313697,0.422625,0.565606,0.708151,-0.106158,-0.308465,-0.210058351818.77,2.603375,-0.611025,1.157928,0.936929,0.03943,-0.491582,0.419855,0.573707,0.703265,-0.08819,-0.282951,-0.158725351818.78,2.604227,-0.623406,1.15775,1.126398,0.119883,-0.672758,0.415588,0.583804,0.697466,-0.070572,-0.251666,-0.085208351818.79,2.606566,-0.638107,1.158616,1.271133,0.203585,-0.866079,0.409536,0.595676,0.690978,-0.081914,-0.207889,-0.017913351818.8,2.610014,-0.654728,1.160383,1.405733,0.249266,-1.004918,0.402076,0.608943,0.683757,-0.085837,-0.173671,0.022939351818.81,2.614102,-0.672851,1.162433,1.520668,0.302876,-1.077752,0.393657,0.623218,0.675746,-0.058757,-0.132221,0.056035351818.82,2.619257,-0.691755,1.164492,1.582073,0.422011,-1.097864,0.384221,0.63789,0.667436,0.002864,-0.061184,0.104353351818.83,2.625997,-0.711029,1.166456,1.621072,0.603235,-1.089531,0.373582,0.652614,0.65919,0.081603,0.005513,0.124562351818.84,2.63451,-0.730243,1.167648,1.647939,0.841513,-1.000327,0.3618,0.667051,0.651264,0.183794,0.049228,0.142163351818.85,2.644803,-0.747919,1.1679,1.50017,1.075482,-0.825078,0.349402,0.680114,0.644486,0.28518,0.152573,0.226638351818.86,2.655866,-0.762346,1.167653,1.227759,1.127609,-0.62474,0.337635,0.69062,0.639568,0.369259,0.469796,0.405049351818.87,2.664046,-0.774596,1.16747,1.062401,0.695586,-0.5512,0.328479,0.699428,0.634746,0.433041,0.932744,0.468068351818.89,2.679513,-0.797789,1.17039,1.059888,1.186227,-0.705396,0.311306,0.715814,0.625059,-0.04536,1.389517,0.623018351818.88,2.668732,-0.785725,1.168353,0.952716,0.388556,-0.587531,0.321936,0.707338,0.62931,0.332925,1.322783,0.565316351818.9,2.696012,-0.812131,1.17315,1.267832,1.438543,-0.849559,0.296496,0.725755,0.620782,-0.066424,1.001174,0.21926351818.91,2.708585,-0.829216,1.176798,1.52404,0.845132,-0.988606,0.283422,0.737402,0.613115,0.048731,0.377787,-0.174028351818.92,2.716998,-0.849503,1.180085,1.849248,0.565387,-1.071409,0.272034,0.750953,0.60172,-0.002625,-0.11695,-0.195013351818.93,2.725667,-0.872597,1.183195,2.09901,0.683581,-1.158211,0.259731,0.766001,0.588033,-0.055538,-0.367335,-0.155385351818.94,2.737075,-0.897422,1.186638,2.233695,0.944166,-1.205874,0.245445,0.781722,0.573296,-0.07003,-0.530135,-0.172326351818.95,2.750655,-0.92267,1.190201,2.26299,1.130847,-1.181625,0.230041,0.797216,0.558146,-0.058502,-0.663885,-0.227382351818.96,2.766518,-0.947461,1.19406,2.219613,1.347752,-1.131408,0.213851,0.811936,0.543164,-0.027801,-0.683594,-0.2301351818.97,2.784356,-0.971095,1.197001,2.146764,1.621984,-0.96417,0.197362,0.825504,0.528764,0.005397,-0.538913,-0.202073351818.98,2.802007,-0.99344,1.19793,2.088064,1.706481,-0.778082,0.181808,0.837909,0.514641,0.021592,-0.300937,-0.194145351818.99,2.817107,-1.015274,1.196954,2.112135,1.567633,-0.63117,0.168142,0.849625,0.499865,0.00358,-0.107972,-0.207675351819.01,2.842318,-1.058645,1.189299,2.166894,1.724277,-0.452852,0.144481,0.871692,0.468271,-0.090465,0.445233,-0.013574351819,2.829566,-1.036972,1.193715,2.129183,1.550348,-0.48789,0.156205,0.860868,0.484259,-0.038132,0.134616,-0.136573351819.02,2.859671,-1.081703,1.187705,2.279,1.926393,-0.653223,0.130706,0.882759,0.451278,-0.089065,0.801002,0.0533351819.03,2.881331,-1.106159,1.190966,2.35167,1.864237,-0.841392,0.115311,0.893984,0.433008,-0.123016,0.837553,-0.067575351819.04,2.904107,-1.130967,1.19748,2.349239,1.642034,-0.906941,0.10017,0.904824,0.413834,-0.167568,0.561255,-0.183945351819.05,2.927617,-1.155654,1.207011,2.341527,1.458299,-0.961975,0.085644,0.915059,0.394123,-0.206768,0.264049,-0.214878351819.06,2.982674,-1.195396,1.247002,2.400177,1.393989,-0.986883,0.058022,0.930361,0.362025,-0.219841,0.040418,-0.199183351819.07,3.011247,-1.220901,1.262638,2.486058,1.416711,-0.895443,0.044556,0.939408,0.339892,-0.184571,-0.099672,-0.171343351819.08,3.039302,-1.246796,1.276946,2.552387,1.493254,-0.731731,0.032509,0.94797,0.316697,-0.135429,-0.125612,-0.177384351819.1,3.087291,-1.298776,1.293319,2.594636,1.702849,-0.275,0.014583,0.96323,0.268282,-0.058223,-0.057468,-0.186388351819.09,3.065256,-1.272831,1.287723,2.597058,1.609697,-0.506399,0.022389,0.955936,0.292721,-0.082463,-0.117191,-0.167339351819.11,3.104691,-1.32411,1.29441,2.535411,1.59528,-0.108623,0.009009,0.969727,0.244026,-0.0306,0.057815,-0.224678351819.12,3.116146,-1.347946,1.292804,2.346631,1.207122,-0.022607,0.005623,0.975271,0.220939,0.009193,0.170893,-0.285347351819.13,3.123458,-1.369241,1.292351,2.088557,0.615865,-0.046559,0.00363,0.979756,0.20016,0.041475,0.274318,-0.299999351819.14,3.124672,-1.388387,1.292425,1.872727,-0.013623,-0.026249,0.003069,0.983409,0.181374,-0.012545,0.307301,-0.308556351819.15,3.121244,-1.405292,1.290611,1.648744,-0.181225,0.015015,0.003352,0.986335,0.164716,-0.003612,0.192086,-0.160733351819.16,3.115537,-1.420196,1.285269,1.465601,0.027453,0.051224,0.003909,0.988681,0.149981,0.003629,0.08772,0.047178351819.17,3.115538,-1.434203,1.282342,1.406469,0.379096,-0.016557,0.003547,0.990686,0.136123,0.049462,0.019706,0.177766351819.19,-3.141243,-1.462157,1.294969,1.373653,0.855203,-0.120788,-0.000038,0.994105,0.108426,0.155647,-0.170786,0.211124351819.18,3.125041,-1.448341,1.286054,1.429323,0.652612,-0.092996,0.002022,0.992512,0.122133,0.10276,-0.058521,0.216475351819.2,-3.11806,-1.474825,1.309095,1.245899,0.931204,-0.131743,-0.002255,0.995398,0.095797,0.174984,-0.272696,0.180616351819.21,-3.093088,-1.486179,1.32498,1.119555,0.916914,-0.085821,-0.004098,0.996422,0.084417,0.17582,-0.358712,0.160807351819.22,-3.071075,-1.496413,1.337801,1.0125,0.942079,-0.031308,-0.005236,0.997235,0.07413,0.128787,-0.43182,0.158094351819.23,-3.045862,-1.505873,1.353143,0.944462,1.023314,-0.03108,-0.006201,0.997893,0.06458,0.08924,-0.460158,0.200785351819.24,-3.012034,-1.514577,1.375704,0.870366,1.181276,-0.041814,-0.00726,0.99842,0.055719,0.063564,-0.46952,0.273154351819.25,-2.962402,-1.522783,1.412966,0.844188,1.266476,-0.07113,-0.008554,0.998848,0.047226,0.034433,-0.459297,0.266326351819.26,-2.897646,-1.530596,1.465211,0.807773,1.264543,-0.055425,-0.009707,0.999192,0.038999,-0.049238,-0.417832,0.212862351819.27,-2.821908,-1.537626,1.528731,0.7177,1.224502,-0.018719,-0.010422,0.99945,0.031484,-0.138824,-0.379134,0.179332351819.28,-2.741891,-1.543137,1.596974,0.548756,1.180299,-0.000839,-0.010762,0.999618,0.025476,-0.213283,-0.33882,0.117209351819.29,-2.648749,-1.546745,1.678148,0.378465,1.228473,-0.047316,-0.011378,0.999711,0.021187,-0.230046,-0.289078,0.030708351819.3,-2.53855,-1.549066,1.776691,0.313235,1.128217,-0.079614,-0.012323,0.999764,0.017896,-0.226553,-0.291054,-0.063901351819.31,-2.378295,-1.551394,1.929491,0.411929,0.603141,-0.103857,-0.013412,0.999812,0.014019,-0.16478,-0.281169,-0.141643351819.32,-2.151521,-1.55369,2.154356,0.467566,0.090258,-0.07299,-0.014301,0.999854,0.009384,-0.081631,-0.261511,-0.118302351819.34,-1.648712,-1.557046,2.658622,0.43278,-0.080385,0.078844,-0.013708,0.999905,0.00107,-0.015848,-0.194669,0.184187351819.33,-1.918275,-1.555524,2.388149,0.407626,-0.078575,0.015622,-0.014359,0.999883,0.0052,-0.062606,-0.267004,0.033969351819.35,-1.257385,-1.557475,3.050158,0.556661,0.003715,0.111702,-0.012672,0.999911,-0.004107,0.041419,-0.071414,0.258807351819.36,-0.817925,-1.555261,-2.794098,0.686924,0.074981,0.141452,-0.011336,0.999879,-0.010621,0.071776,0.035338,0.230333351819.37,-0.493434,-1.550253,-2.470954,0.770324,0.164471,0.165399,-0.00973,0.999789,-0.018092,0.096842,0.112287,0.172297351819.38,-0.295379,-1.54336,-2.27505,0.837807,0.243228,0.171089,-0.007986,0.999624,-0.026245,0.129079,0.189814,0.120636351819.39,-0.177427,-1.535129,-2.160107,0.909725,0.331457,0.158636,-0.006294,0.999364,-0.0351,0.167183,0.253032,0.120153351819.4,-0.102088,-1.526043,-2.088635,0.956958,0.414522,0.162,-0.004559,0.998999,-0.044505,0.188504,0.307459,0.150371351819.41,-0.047494,-1.516622,-2.038456,0.966562,0.464767,0.18649,-0.002571,0.998533,-0.054087,0.207862,0.391726,0.173609351819.42,-0.001965,-1.507377,-1.998383,0.920867,0.602689,0.224112,-0.000125,0.99799,-0.063376,0.226321,0.474682,0.198874351819.43,0.043232,-1.499253,-1.961116,0.768724,0.881833,0.28814,0.003089,0.997442,-0.071416,0.197732,0.546687,0.212422351819.44,0.095949,-1.493035,-1.918512,0.545519,1.06544,0.390277,0.007442,0.996978,-0.077326,0.057575,0.589753,0.177378351819.45,0.157361,-1.488844,-1.867514,0.308924,1.051718,0.477945,0.012829,0.996644,-0.080849,-0.144924,0.628295,0.113457351819.46,0.22108,-1.486407,-1.813357,0.111027,0.964927,0.493565,0.018483,0.996441,-0.082237,-0.317693,0.664051,0.123573351819.47,0.282725,-1.485258,-1.760804,-0.033963,0.924535,0.448655,0.023834,0.996344,-0.082042,-0.269424,0.657694,0.219386351819.48,0.338104,-1.485422,-1.713535,-0.177852,0.796405,0.357029,0.028284,0.996358,-0.080443,-0.096064,0.639049,0.260131351819.49,0.388389,-1.487388,-1.669359,-0.371131,0.5724,0.258856,0.03155,0.996524,-0.077107,0.060644,0.574704,0.255146351819.5,0.446989,-1.491624,-1.614634,-0.647107,0.362963,0.236795,0.034187,0.996867,-0.071319,0.172433,0.435277,0.278564351819.51,0.536002,-1.498236,-1.528102,-0.987281,0.253302,0.283276,0.037024,0.997369,-0.06233,0.207269,0.309303,0.330472351819.52,0.683982,-1.506673,-1.381555,-1.373574,0.147166,0.361376,0.040491,0.997945,-0.049665,0.18833,0.263164,0.367475351819.53,0.93766,-1.515311,-1.127204,-1.819094,-0.092053,0.446836,0.044708,0.998461,-0.032813,0.141434,0.284605,0.367987351819.54,1.346945,-1.520097,-0.713799,-2.325564,-0.45294,0.488356,0.049414,0.998715,-0.01125,0.050821,0.366748,0.333668351819.55,1.85004,-1.514786,-0.202722,-2.867517,-0.82191,0.414273,0.053812,0.998432,0.01543,-0.081248,0.486065,0.308133351819.56,2.262984,-1.496798,0.221017,-3.398604,-1.047605,0.235213,0.056915,0.997263,0.047184,-0.245148,0.577459,0.324901351819.57,2.530244,-1.468346,0.500583,-3.879182,-1.156081,0.065847,0.058701,0.994757,0.083747,-0.337525,0.630976,0.364342351819.58,2.693815,-1.434116,0.676982,-4.055887,-1.168693,-0.155612,0.058994,0.990674,0.122822,-0.370868,0.668765,0.331157351819.59,2.798778,-1.399742,0.795262,-3.821503,-1.237102,-0.41923,0.057218,0.985406,0.160316,-0.3495,0.694541,0.18409351819.6,2.872817,-1.368397,0.885669,-3.419926,-1.569814,-0.754263,0.053381,0.979587,0.193803,-0.2694,0.763974,-0.126191351819.61,2.9326,-1.340341,0.96356,-3.064877,-1.631109,-1.020053,0.047392,0.973562,0.223451,-0.164671,0.858133,-0.319688351819.62,2.980836,-1.314688,1.028119,-2.751894,-1.376398,-1.074684,0.040547,0.967383,0.250051,-0.012364,0.723931,-0.422415351819.63,3.021844,-1.291048,1.08269,-2.521233,-1.133112,-1.117186,0.032985,0.961125,0.274137,0.118809,0.528804,-0.572721351819.64,3.052194,-1.266896,1.126679,-2.592074,-1.218295,-0.957384,0.026717,0.954177,0.298049,0.209947,0.281694,-0.920821351819.65,3.066169,-1.239749,1.156077,-2.886065,-1.510608,-0.596029,0.024492,0.945702,0.32411,0.293486,0.05677,-1.061277351819.66,3.059722,-1.208356,1.170602,-3.314614,-2.226337,-0.135266,0.028995,0.935034,0.35337,0.354428,-0.089896,-1.068854351819.67,3.032821,-1.172991,1.173249,-3.891725,-3.156471,0.247971,0.042055,0.921913,0.385107,0.390318,-0.142693,-1.000158351819.68,2.997995,-1.130075,1.175153,-4.431973,-3.819659,0.533558,0.061047,0.904444,0.422201,0.409702,-0.111002,-0.804846351819.69,2.961938,-1.083215,1.177389,-4.73509,-3.774078,0.696277,0.083715,0.883469,0.46095,0.432933,-0.08255,-0.424772351819.7,2.934014,-1.036152,1.181625,-4.646787,-2.93723,0.696649,0.105011,0.86045,0.498597,0.362732,-0.106879,-0.084839351819.71,2.918123,-0.993612,1.186912,-4.067995,-1.792955,0.625627,0.120927,0.838002,0.532098,0.227828,-0.175588,0.178763351819.72,2.90599,-0.960185,1.191784,-3.132196,-1.627037,0.462449,0.133841,0.819298,0.557528,-0.013022,-0.250694,0.149274351819.73,2.894543,-0.932563,1.196369,-2.696669,-1.480508,0.385724,0.145694,0.80315,0.577688,-0.212467,-0.232379,-0.158743351819.74,2.883681,-0.906226,1.20036,-2.629724,-1.420539,0.456598,0.157302,0.787182,0.596323,-0.358764,-0.309353,-0.308267351819.75,2.868595,-0.878962,1.202315,-2.717828,-1.779472,0.657653,0.172004,0.770077,0.614325,-0.431678,-0.488278,-0.518515351819.76,2.848502,-0.850263,1.202453,-2.784341,-2.104449,0.841709,0.19062,0.751454,0.63165,-0.325386,-0.717106,-0.715024351819.77,2.826359,-0.822143,1.201008,-2.626228,-2.11371,0.966976,0.211029,0.732606,0.647113,-0.171539,-0.761613,-0.632755351819.78,2.804306,-0.795761,1.198594,-2.412826,-2.025457,1.021958,0.231564,0.714396,0.660315,-0.149899,-0.597835,-0.498801351819.79,2.783298,-0.771476,1.195925,-2.175275,-1.892923,1.006545,0.251395,0.697194,0.671358,-0.172507,-0.468694,-0.48604351819.8,2.763851,-0.749722,1.193415,-1.914919,-1.751159,0.942187,0.269933,0.681435,0.680281,-0.150701,-0.435357,-0.474714351819.81,2.74626,-0.730714,1.191073,-1.638258,-1.560495,0.860739,0.286795,0.667401,0.687259,-0.091452,-0.510297,-0.478061351819.82,2.731481,-0.714911,1.18915,-1.331043,-1.294549,0.723806,0.301088,0.65555,0.692532,-0.004289,-0.518602,-0.473095351819.83,2.71958,-0.702642,1.187413,-0.990694,-1.015899,0.587125,0.312579,0.646236,0.696185,0.03346,-0.491268,-0.468509351819.84,2.709616,-0.694217,1.185753,-0.627125,-0.861154,0.42753,0.321768,0.639784,0.697955,0.01539,-0.47592,-0.461322351819.85,2.701628,-0.690036,1.184187,-0.231094,-0.649121,0.234945,0.32847,0.636565,0.697777,-0.018167,-0.458541,-0.439003351819.86,2.696232,-0.690359,1.183168,0.158922,-0.423501,-0.004714,0.332142,0.636814,0.695809,-0.031101,-0.458454,-0.353249351819.87,2.693602,-0.695065,1.183114,0.515988,-0.206467,-0.268125,0.332668,0.640436,0.692224,-0.049725,-0.449823,-0.287805351819.88,2.694046,-0.703669,1.184392,0.807934,0.019309,-0.526793,0.329964,0.64702,0.687378,-0.052727,-0.466157,-0.218995351819.89,2.697347,-0.715461,1.186956,1.042843,0.207139,-0.739929,0.324392,0.655965,0.681527,-0.054082,-0.471822,-0.144342351819.9,2.702763,-0.729848,1.190636,1.239845,0.322814,-0.912604,0.316653,0.666756,0.674661,-0.034411,-0.475793,-0.066003351819.91,2.709304,-0.746424,1.195293,1.411737,0.34278,-1.054243,0.30756,0.679018,0.666589,-0.003941,-0.450457,0.00167351819.92,2.716148,-0.764968,1.200993,1.561957,0.274312,-1.193668,0.297742,0.692514,0.657095,-0.012022,-0.390222,0.051904351819.93,2.722754,-0.784932,1.20788,1.649809,0.145446,-1.299286,0.287714,0.706777,0.646287,-0.027903,-0.323309,0.136108351819.94,2.729034,-0.804815,1.215885,1.571702,0.03031,-1.329516,0.27796,0.720703,0.63508,-0.031179,-0.260925,0.216452351819.95,2.735864,-0.821758,1.225634,1.177206,-0.039727,-1.280426,0.268757,0.732344,0.625654,-0.043415,-0.159742,0.345675351819.96,2.743983,-0.832994,1.236921,0.607086,0.002441,-1.100807,0.260466,0.739949,0.620188,-0.05673,0.055263,0.497244351819.97,2.753428,-0.840789,1.247712,0.437939,0.188364,-0.944819,0.252406,0.745169,0.617263,0.035497,0.399942,0.606141351819.98,2.760868,-0.848986,1.256569,0.589087,-0.001149,-0.828677,0.245528,0.750611,0.613432,0.169801,0.791168,0.550478351819.99,2.764011,-0.858395,1.263687,0.745964,-0.240214,-0.790282,0.240985,0.756795,0.607609,0.2086,0.971156,0.505886351820,2.771544,-0.870192,1.270605,1.021264,0.448348,-0.887129,0.233156,0.764453,0.601041,0.175337,0.962354,0.43532351820.01,2.786419,-0.885779,1.276464,1.456254,1.195659,-0.896275,0.220019,0.774408,0.593198,0.01782,0.57482,0.151644351820.02,2.800633,-0.905483,1.277646,1.964467,1.35229,-0.687307,0.206422,0.786723,0.58177,0.132735,0.024831,-0.172789351820.03,2.810158,-0.927954,1.273821,2.280658,1.23326,-0.480248,0.195069,0.800395,0.566848,0.351822,-0.316005,-0.288711351820.04,2.817692,-0.95143,1.268086,2.359431,1.249271,-0.442238,0.18476,0.814246,0.550333,0.271828,-0.424598,-0.16334351820.05,2.829127,-0.975383,1.264119,2.367991,1.573606,-0.584088,0.172409,0.827917,0.533694,0.086868,-0.410619,-0.211184351820.06,2.846957,-0.999296,1.263918,2.268803,1.874656,-0.746027,0.157071,0.84109,0.517587,0.032672,-0.30038,-0.27839351820.07,2.867954,-1.021573,1.265979,2.078855,1.953213,-0.716958,0.14107,0.85293,0.502602,0.030759,-0.129496,-0.296929351820.08,2.889194,-1.042579,1.267763,2.016395,2.001987,-0.61835,0.125861,0.863707,0.488026,0.023965,0.057955,-0.207783351820.09,2.90985,-1.063351,1.268573,2.032744,2.003639,-0.516776,0.111609,0.873989,0.472955,-0.025824,0.223896,-0.165216351820.1,2.928529,-1.084452,1.268287,2.096798,1.867469,-0.435724,0.098834,0.884047,0.456828,-0.08356,0.495958,-0.155574351820.11,2.945628,-1.106372,1.267528,2.199922,1.77984,-0.41961,0.087213,0.89408,0.439335,-0.136057,0.735681,-0.110233351820.12,2.964485,-1.128882,1.26823,2.232514,1.84985,-0.464383,0.075348,0.903935,0.420981,-0.202057,0.701488,-0.097616351820.13,2.987457,-1.153049,1.274361,2.411277,1.728217,-0.737935,0.062286,0.914005,0.400893,-0.333511,0.56123,-0.193343351820.15,3.052386,-1.204977,1.308901,2.551994,1.647004,-1.04504,0.031868,0.933831,0.356292,-0.33271,0.142661,-0.177246351820.14,3.017285,-1.178819,1.288625,2.514138,1.668925,-0.966424,0.047365,0.924155,0.379069,-0.356478,0.359383,-0.196635351820.16,3.091821,-1.230974,1.333244,2.551883,1.674908,-1.016297,0.016583,0.942814,0.332907,-0.278317,0.006909,-0.203101351820.17,3.133536,-1.256344,1.360043,2.527505,1.634031,-0.912814,0.002492,0.950966,0.309286,-0.218358,-0.022591,-0.226721351820.18,-3.107628,-1.281175,1.38753,2.51114,1.577543,-0.744081,-0.009698,0.958352,0.285425,-0.157401,-0.004922,-0.201135351820.19,-3.067735,-1.305652,1.412692,2.500877,1.594026,-0.498639,-0.019337,0.965055,0.261335,-0.098003,0.030047,-0.152204351820.2,-3.030885,-1.329923,1.434135,2.47894,1.625457,-0.255478,-0.026355,0.97113,0.23709,-0.07127,0.079331,-0.137298351820.21,-2.99761,-1.353797,1.45306,2.429005,1.429363,-0.087684,-0.030893,0.976548,0.213073,-0.05802,0.185897,-0.210494351820.22,-2.966061,-1.376186,1.473353,2.240802,1.086697,-0.059459,-0.033771,0.981123,0.190413,-0.002392,0.298464,-0.220976351820.24,-2.889997,-1.413585,1.540906,1.80303,0.191437,-0.179088,-0.038977,0.987668,0.151635,-0.022394,0.218768,-0.099908351820.23,-2.92955,-1.396073,1.503336,2.024369,0.567128,-0.197514,-0.036585,0.984775,0.169942,0.019693,0.383618,-0.238927351820.25,-2.853651,-1.429303,1.575775,1.631369,0.206567,-0.052501,-0.040047,0.990006,0.135216,-0.044319,0.100005,0.045967351820.26,-2.818374,-1.443987,1.608002,1.517037,0.394154,0.052708,-0.040169,0.99197,0.119921,-0.010993,0.011692,0.11305351820.27,-2.777786,-1.457889,1.643181,1.450439,0.621593,0.071726,-0.040091,0.993633,0.105293,0.009268,-0.057659,0.100426351820.28,-2.723998,-1.471249,1.690539,1.438094,0.678984,0.035141,-0.040306,0.995049,0.090843,0.051781,-0.158242,0.085396351820.29,-2.651915,-1.483997,1.75651,1.417905,0.629762,-0.00119,-0.040774,0.996235,0.076503,0.089251,-0.235432,0.087666351820.3,-2.559651,-1.495546,1.843156,1.33678,0.593623,-0.018872,-0.041322,0.99717,0.062804,0.11313,-0.286156,0.098634351820.31,-2.44399,-1.505496,1.952871,1.249434,0.63435,-0.025096,-0.041918,0.997869,0.05001,0.122424,-0.34229,0.1195351820.32,-2.29941,-1.513921,2.091607,1.18633,0.604686,-0.022354,-0.042412,0.998383,0.037849,0.127312,-0.386841,0.107506351820.33,-2.127586,-1.520461,2.257543,1.080615,0.63496,-0.00308,-0.042715,0.998733,0.026589,0.118765,-0.40834,0.133781351820.34,-1.942704,-1.525262,2.435021,0.953761,0.820196,0.061453,-0.042407,0.998963,0.016541,0.083407,-0.400361,0.166702351820.36,-1.530307,-1.528373,2.825824,0.822576,1.29458,-0.021209,-0.042376,0.9991,-0.001717,-0.005094,-0.239106,0.219551351820.35,-1.738877,-1.527978,2.629277,0.892933,1.045109,0.019667,-0.042202,0.999083,0.007161,0.050167,-0.320311,0.203822351820.37,-1.350879,-1.527044,2.991019,0.6943,1.490972,-0.049617,-0.042685,0.999043,-0.009541,-0.046884,-0.222996,0.18723351820.38,-1.210597,-1.524405,3.116711,0.604936,1.463154,-0.104767,-0.043399,0.998924,-0.016345,-0.098401,-0.245537,0.088474351820.39,-1.102157,-1.520831,-3.071096,0.555519,1.279601,-0.149488,-0.04456,0.998752,-0.022559,-0.123638,-0.298602,0.032324351820.4,-1.02232,-1.517099,-3.001713,0.478663,0.978051,-0.14711,-0.045799,0.998559,-0.027984,-0.11512,-0.352273,0.007201351820.41,-0.968064,-1.514069,-2.954184,0.355287,0.589461,-0.101097,-0.046707,0.998391,-0.032141,-0.116639,-0.370477,0.018653351820.42,-0.931304,-1.511972,-2.92115,0.262191,0.330934,-0.046671,-0.047174,0.99827,-0.035086,-0.162269,-0.358546,0.046362351820.43,-0.897178,-1.509954,-2.889842,0.287725,0.291363,-0.053803,-0.047523,0.99815,-0.037931,-0.194756,-0.315288,0.081403351820.44,-0.860473,-1.506965,-2.856453,0.378069,0.360049,-0.114084,-0.048361,0.997963,-0.041595,-0.15748,-0.263344,0.091247351820.45,-0.819695,-1.502982,-2.819351,0.475439,0.37883,-0.136782,-0.04953,0.997702,-0.046244,-0.048599,-0.231756,0.085306351820.46,-0.77334,-1.498463,-2.776403,0.550861,0.345779,-0.101856,-0.050483,0.997385,-0.051716,0.050041,-0.19871,0.089405351820.47,-0.722297,-1.493963,-2.728573,0.586558,0.334432,-0.024622,-0.050745,0.99705,-0.057591,0.080592,-0.15481,0.082844351820.48,-0.663969,-1.489295,-2.6734,0.666052,0.342182,0.057197,-0.050169,0.996681,-0.064116,0.078368,-0.090492,0.056318351820.49,-0.599033,-1.483969,-2.612329,0.763118,0.440371,0.114337,-0.048896,0.996233,-0.071619,0.079658,0.001127,0.04574351820.5,-0.53081,-1.477733,-2.548945,0.865596,0.533133,0.158728,-0.047044,0.995673,-0.080142,0.108735,0.101678,0.036761351820.51,-0.462286,-1.470342,-2.485473,0.97739,0.534139,0.199207,-0.044727,0.994959,-0.089759,0.152194,0.204657,0.0335351820.52,-0.396243,-1.46189,-2.424037,1.063353,0.487269,0.246012,-0.04195,0.994076,-0.10027,0.174717,0.324604,0.049961351820.53,-0.335007,-1.45267,-2.367038,1.112079,0.459649,0.28496,-0.038747,0.993031,-0.1113,0.170476,0.456722,0.087573351820.54,-0.280011,-1.442766,-2.316444,1.150573,0.499058,0.294786,-0.035287,0.991815,-0.122708,0.155633,0.57688,0.160962351820.55,-0.231631,-1.432244,-2.273626,1.175673,0.638627,0.28604,-0.031705,0.990417,-0.134421,0.132306,0.658921,0.216208351820.56,-0.187307,-1.421932,-2.236762,1.099317,0.844832,0.315715,-0.027618,0.98894,-0.145721,0.065628,0.673062,0.239242351820.57,-0.142905,-1.413282,-2.201484,0.89195,0.987902,0.422383,-0.02234,0.98762,-0.155265,-0.073454,0.631627,0.239524351820.58,-0.096218,-1.407142,-2.163789,0.616402,0.92768,0.560036,-0.015652,0.986638,-0.162171,-0.286121,0.600535,0.193391351820.59,-0.050753,-1.403286,-2.125717,0.380596,0.754832,0.609754,-0.008458,0.986003,-0.166513,-0.479701,0.611165,0.1616351820.6,-0.008973,-1.401154,-2.08988,0.185985,0.616623,0.589255,-0.001515,0.985645,-0.168823,-0.47842,0.637447,0.189727351820.61,0.025773,-1.400578,-2.059599,0.00787,0.451211,0.488902,0.004365,0.985548,-0.169341,-0.324953,0.602602,0.164717351820.63,0.071376,-1.40603,-2.017616,-0.510602,0.081261,0.267678,0.011697,0.986457,-0.163604,0.016486,0.325006,0.110046351820.62,0.051766,-1.401955,-2.0363,-0.212828,0.253735,0.357309,0.008695,0.98578,-0.167815,-0.14842,0.497633,0.122923351820.64,0.089855,-1.413806,-1.998668,-0.910125,-0.061758,0.238999,0.01403,0.987702,-0.155715,0.15661,0.281463,0.122573351820.66,0.135227,-1.441107,-1.946334,-1.701367,-0.504409,0.20781,0.017435,0.991602,-0.128146,0.282675,0.482809,0.280367351820.65,0.110541,-1.425579,-1.975656,-1.314209,-0.261201,0.223265,0.015964,0.989474,-0.143825,0.251447,0.390805,0.183513351820.67,0.169904,-1.460615,-1.903814,-2.135998,-0.857215,0.209358,0.018593,0.993936,-0.108375,0.238304,0.540488,0.35099351820.68,0.229567,-1.484633,-1.83188,-2.644717,-1.323882,0.215942,0.019583,0.99629,-0.083799,0.097376,0.603456,0.3869351820.69,0.356579,-1.513351,-1.688105,-3.21455,-1.753631,0.130055,0.020041,0.99835,-0.053802,-0.103751,0.652315,0.405426351820.7,0.834828,-1.544418,-1.190371,-3.833354,-1.962877,-0.015653,0.019549,0.999652,-0.017706,-0.278002,0.63403,0.434851351820.72,2.947825,-1.501513,0.958334,-4.510046,-1.375097,-0.628749,0.01333,0.997601,0.067933,-0.384653,0.635791,0.392181351820.71,2.494282,-1.541114,0.488789,-4.324758,-1.922375,-0.240019,0.017897,0.99956,0.023674,-0.35475,0.614241,0.398262351820.73,3.08829,-1.460539,1.106329,-4.134902,-0.485007,-0.854534,0.005862,0.993928,0.109878,-0.337283,0.65335,0.211076351820.75,-3.053796,-1.400026,1.248128,-2.319178,0.008953,-1.20002,-0.014901,0.985454,0.169287,0.067666,0.872639,-0.818137351820.74,-3.117064,-1.425877,1.184849,-3.266087,0.10777,-0.997166,-0.003542,0.989518,0.144369,-0.198179,0.822799,-0.248846351820.76,-3.002434,-1.379963,1.305051,-1.832302,-0.65272,-1.237547,-0.02631,0.981847,0.187844,0.297306,0.399318,-1.197838351820.78,-3.011567,-1.329709,1.332977,-2.980401,-2.577239,-0.168649,-0.030957,0.971079,0.236743,0.336011,-0.322825,-1.364063351820.77,-2.985241,-1.357699,1.336242,-2.276191,-1.59481,-0.830687,-0.032932,0.97738,0.208909,0.398716,-0.14837,-1.461289351820.79,-3.062479,-1.29554,1.313234,-3.644817,-3.413203,0.228491,-0.02148,0.962356,0.270944,0.201915,-0.202453,-1.021127351820.8,-3.121815,-1.25464,1.291707,-4.32032,-4.039917,0.488229,-0.006149,0.950437,0.310855,0.134857,-0.11035,-0.633227351820.81,3.103492,-1.207128,1.274784,-4.931746,-4.24192,0.653279,0.013549,0.934598,0.355447,0.154938,-0.005948,-0.270028351820.82,3.054874,-1.155206,1.26407,-5.252026,-3.736012,0.753592,0.034967,0.914878,0.402213,0.260352,-0.002723,0.045297351820.83,3.019323,-1.10472,1.260341,-4.922542,-3.115831,0.659559,0.054809,0.893338,0.44603,0.294098,-0.073087,0.107697351820.84,2.989785,-1.06094,1.2604,-4.17855,-2.958373,0.592967,0.073806,0.872815,0.482439,0.154267,-0.22984,-0.00258351820.85,2.962107,-1.024606,1.260859,-3.464656,-2.76108,0.574039,0.092731,0.85451,0.511091,0.043408,-0.368655,-0.001554351820.86,2.939064,-0.992749,1.261896,-3.093504,-2.288796,0.551289,0.109905,0.837531,0.535222,-0.076976,-0.438132,-0.093343351820.87,2.919595,-0.962471,1.262863,-2.980873,-1.999735,0.614394,0.125831,0.820606,0.55747,-0.217734,-0.51189,-0.309606351820.88,2.897431,-0.931724,1.261991,-3.023862,-2.253152,0.827268,0.144188,0.802649,0.57876,-0.38192,-0.655402,-0.652872351820.89,2.871245,-0.899885,1.259754,-3.080294,-2.506903,0.980232,0.166035,0.783256,0.599119,-0.371739,-0.738395,-0.723844351820.9,2.844318,-0.868445,1.257228,-2.958126,-2.512086,1.059259,0.189228,0.763326,0.617679,-0.230579,-0.706242,-0.521503351820.91,2.816952,-0.838304,1.25403,-2.790203,-2.52048,1.156847,0.213302,0.74351,0.633794,-0.166793,-0.615931,-0.432622351820.92,2.789441,-0.809644,1.25019,-2.582318,-2.468421,1.219365,0.237909,0.724042,0.647427,-0.147471,-0.534345,-0.43086351820.93,2.763172,-0.783086,1.246032,-2.334158,-2.308052,1.226383,0.261847,0.70547,0.658596,-0.120672,-0.495692,-0.419323351820.94,2.738947,-0.758965,1.242052,-2.072692,-2.111782,1.182157,0.284309,0.688171,0.667525,-0.110207,-0.501189,-0.434844351820.96,2.698493,-0.718662,1.235271,-1.557006,-1.621935,0.962013,0.322708,0.658378,0.679998,-0.084214,-0.5093,-0.425161351820.95,2.717169,-0.737453,1.238295,-1.812971,-1.879477,1.101503,0.304805,0.672405,0.674511,-0.091807,-0.52203,-0.432888351820.97,2.682636,-0.703139,1.233188,-1.263522,-1.407415,0.780271,0.337938,0.646616,0.683876,-0.09221,-0.470865,-0.439476351820.98,2.669458,-0.691177,1.231744,-0.950749,-1.178039,0.59545,0.350413,0.637444,0.686204,-0.058558,-0.457909,-0.419556351820.99,2.658814,-0.682768,1.230832,-0.645447,-0.959339,0.405256,0.360173,0.630943,0.687158,-0.021916,-0.472938,-0.40391351821,2.650921,-0.677693,1.230647,-0.383736,-0.724624,0.198618,0.367089,0.626998,0.68711,0.00138,-0.439269,-0.352912351821.01,2.646195,-0.675426,1.231667,-0.198805,-0.486553,-0.017243,0.371007,0.62523,0.686616,-0.010426,-0.378587,-0.264771351821.02,2.644077,-0.67556,1.234266,-0.047255,-0.349745,-0.24163,0.37242,0.625335,0.685755,-0.045653,-0.30638,-0.169214351821.03,2.643412,-0.677951,1.238177,0.103697,-0.312959,-0.431551,0.372161,0.627198,0.684192,-0.059753,-0.252793,-0.094714351821.04,2.642914,-0.682701,1.243044,0.286209,-0.379608,-0.607003,0.371072,0.630891,0.681382,-0.055826,-0.249696,-0.061921351821.05,2.642088,-0.690098,1.248499,0.51029,-0.443113,-0.772493,0.36939,0.636613,0.67696,-0.050558,-0.267625,-0.024327351821.06,2.641711,-0.700454,1.254162,0.77528,-0.376543,-0.92307,0.366465,0.644565,0.670999,-0.0628,-0.248981,0.038886351821.07,2.64294,-0.713801,1.25972,1.041561,-0.188242,-1.046244,0.361493,0.654711,0.663834,-0.067777,-0.204684,0.115722351821.08,2.646282,-0.729665,1.264994,1.270359,0.041982,-1.1325,0.354291,0.66662,0.655816,-0.019788,-0.1448,0.216742351821.09,2.651472,-0.74738,1.269636,1.452753,0.269559,-1.150818,0.345269,0.67972,0.647125,0.0382,-0.090318,0.317811351821.1,2.658761,-0.766512,1.272792,1.650935,0.612794,-1.08286,0.334444,0.693627,0.637988,0.083312,-0.03518,0.246167351821.11,2.66775,-0.786227,1.272472,1.803049,1.034227,-0.807329,0.322391,0.707693,0.628677,0.185711,-0.057562,0.076172351821.12,2.675858,-0.803077,1.266738,1.631149,1.25675,-0.254273,0.311884,0.719496,0.620527,0.43598,-0.006102,0.091082351821.14,2.665488,-0.828971,1.242627,1.575088,-0.49575,0.159491,0.309658,0.737236,0.600495,0.813557,0.923057,0.067168351821.13,2.676961,-0.815964,1.255643,1.502169,0.722489,0.200012,0.307019,0.728386,0.61253,0.711322,0.446769,0.148899351821.15,2.655,-0.842352,1.234745,1.409372,-0.239902,-0.270896,0.311297,0.746211,0.588442,0.394208,1.274526,0.624647351821.16,2.664082,-0.858153,1.230539,1.604946,1.714629,-0.543112,0.300483,0.756636,0.580699,-0.340995,1.50374,1.018925351821.17,2.682915,-0.876496,1.227056,1.792021,2.165527,-0.658162,0.283301,0.768502,0.573712,-0.293402,1.001991,0.325442351821.18,2.699254,-0.895946,1.224566,1.845435,1.730955,-0.724716,0.26744,0.780801,0.564647,-0.031051,0.258475,-0.101207351821.19,2.713291,-0.916283,1.222698,1.937982,1.540594,-0.771381,0.25284,0.793345,0.553784,0.053587,-0.148752,-0.150219351821.2,2.728028,-0.937938,1.221431,2.054032,1.610203,-0.843187,0.23769,0.80634,0.541589,0.062832,-0.411916,-0.135919351821.21,2.744024,-0.96087,1.221412,2.144323,1.599787,-0.934194,0.221778,0.819691,0.528131,0.078851,-0.607319,-0.144281351821.23,2.778494,-1.009279,1.225459,2.276156,1.612863,-1.001419,0.189119,0.846448,0.497754,-0.000215,-0.686475,-0.088849351821.22,2.760776,-0.984738,1.223129,2.205617,1.538267,-1.025299,0.205569,0.833127,0.513459,0.042753,-0.714643,-0.131929351821.24,2.795853,-1.03398,1.226689,2.326773,1.642133,-0.901765,0.17331,0.859341,0.48114,-0.054551,-0.500943,-0.094681351821.25,2.810734,-1.058967,1.226077,2.419337,1.521125,-0.770326,0.159105,0.87185,0.46321,-0.098635,-0.325478,-0.125594351821.26,2.822814,-1.08465,1.22276,2.52624,1.523748,-0.643407,0.146431,0.88414,0.443683,-0.130623,-0.086563,-0.076938351821.27,2.834048,-1.110771,1.217268,2.605078,1.664839,-0.554523,0.134399,0.896041,0.423139,-0.177596,0.196915,-0.007978351821.29,2.864907,-1.166272,1.212255,2.721953,1.82587,-0.843351,0.107514,0.91929,0.378612,-0.206758,0.77082,-0.016125351821.28,2.847034,-1.138073,1.212416,2.719316,1.778027,-0.649967,0.121743,0.907827,0.401284,-0.196114,0.541361,0.015342351821.3,2.888231,-1.193847,1.218555,2.576428,1.718706,-0.993781,0.092264,0.929792,0.356335,-0.214975,0.738253,-0.10429351821.32,2.94305,-1.242865,1.247343,2.133218,1.256866,-1.038959,0.063528,0.946711,0.315758,-0.246939,0.201117,-0.288323351821.31,2.914554,-1.219491,1.230685,2.350613,1.440686,-1.047229,0.07746,0.938924,0.335292,-0.243964,0.467081,-0.24908351821.33,2.972618,-1.264542,1.266114,2.037195,1.13929,-0.955089,0.050702,0.95347,0.297196,-0.213117,0.024619,-0.176788351821.34,3.001273,-1.286904,1.285496,2.179264,0.994269,-0.890413,0.039174,0.959973,0.277341,-0.206059,-0.104092,-0.19325351821.35,3.028348,-1.310102,1.303379,2.279538,0.999242,-0.731527,0.029127,0.966211,0.256101,-0.177976,-0.129023,-0.136868351821.36,3.051553,-1.333196,1.316832,2.278063,1.03367,-0.511688,0.021164,0.971906,0.234418,-0.13414,-0.095563,-0.1078351821.37,3.066072,-1.355795,1.321986,2.261712,0.908566,-0.230634,0.016097,0.976976,0.212741,-0.111632,-0.051668,-0.120563351821.38,3.065876,-1.377433,1.314021,2.147937,0.73371,0.065737,0.014536,0.981364,0.19161,-0.066278,0.013052,-0.19959351821.39,3.057142,-1.396888,1.298731,1.918651,0.600319,0.118596,0.014595,0.984916,0.172416,0.038414,0.144479,-0.185676351821.4,3.049831,-1.41439,1.287055,1.730696,0.357059,0.013053,0.014274,0.987793,0.155114,0.165811,0.269928,-0.193093351821.41,3.041262,-1.430115,1.276786,1.553758,0.101557,0.001606,0.014045,0.990121,0.139513,0.218316,0.26583,-0.164888351821.42,3.029309,-1.44442,1.263818,1.422348,0.107369,0.019661,0.014122,0.992025,0.125247,0.221885,0.168055,-0.036059351821.43,3.020143,-1.457939,1.252541,1.356031,0.246863,-0.042201,0.013644,0.993638,0.111788,0.252409,0.031508,0.104963351821.44,3.015393,-1.47097,1.243953,1.299249,0.430244,-0.073149,0.012544,0.995021,0.098868,0.226882,-0.078075,0.153039351821.45,3.01361,-1.483108,1.235815,1.198977,0.714046,-0.094102,0.011178,0.996158,0.08686,0.186469,-0.176089,0.197839351821.46,3.027655,-1.494731,1.241137,1.150371,0.920335,-0.210458,0.00864,0.997108,0.075499,0.181317,-0.209038,0.221849351821.47,3.054242,-1.5061,1.258008,1.122055,0.998057,-0.242973,0.00564,0.997908,0.064405,0.10108,-0.284788,0.184359351821.48,3.099738,-1.517086,1.293301,1.079909,1.049038,-0.294747,0.002246,0.998558,0.053638,0.016781,-0.33889,0.165951351821.49,-3.107644,-1.527423,1.358019,1.02717,1.158804,-0.329707,-0.001472,0.999059,0.043335,-0.034432,-0.363561,0.187271351821.5,-2.979497,-1.537015,1.473695,1.001217,1.303705,-0.361337,-0.005451,0.999429,0.033332,-0.072476,-0.387277,0.208901351821.51,-2.747709,-1.545513,1.69189,0.996478,1.397323,-0.399033,-0.009702,0.99968,0.023345,-0.116992,-0.403001,0.183443351821.52,-2.332319,-1.551311,2.093853,0.97617,1.338578,-0.42359,-0.014102,0.99981,0.013445,-0.163632,-0.41932,0.113417351821.53,-1.779586,-1.551969,2.63501,0.931625,1.108351,-0.426485,-0.018417,0.999823,0.003902,-0.197021,-0.438986,0.030171351821.54,-1.351712,-1.547662,3.054604,0.863049,0.750315,-0.415322,-0.02258,0.999732,-0.005028,-0.201068,-0.455192,-0.026863351821.55,-1.123534,-1.541562,-3.005039,0.713089,0.390589,-0.369628,-0.026355,0.999573,-0.012642,-0.200284,-0.442322,-0.031212351821.56,-1.014213,-1.536086,-2.897593,0.524901,0.14096,-0.298975,-0.029465,0.999398,-0.018333,-0.184524,-0.403054,-0.007454351821.57,-0.952303,-1.531465,-2.83663,0.433698,0.107393,-0.250552,-0.032037,0.999227,-0.022799,-0.143119,-0.32578,0.05057351821.58,-0.897591,-1.527092,-2.783865,0.449836,0.232376,-0.20808,-0.034159,0.999045,-0.027241,-0.10166,-0.224997,0.104283351821.59,-0.835513,-1.522535,-2.723912,0.53579,0.194071,-0.155962,-0.035779,0.998836,-0.032361,-0.047305,-0.141643,0.125867351821.6,-0.760516,-1.517303,-2.649278,0.678762,-0.004289,-0.09432,-0.036855,0.99857,-0.038737,0.041296,-0.062565,0.112208351821.61,-0.678247,-1.51153,-2.566107,0.761076,-0.086059,-0.002596,-0.037164,0.998244,-0.046122,0.092446,-0.00563,0.120799351821.62,-0.596726,-1.505955,-2.484177,0.75422,0.004189,0.102778,-0.036411,0.997899,-0.053598,0.115864,0.018856,0.139398351821.63,-0.516376,-1.500185,-2.404959,0.79281,0.179348,0.164514,-0.034834,0.997508,-0.061353,0.153517,0.070729,0.149809351821.65,-0.371865,-1.486034,-2.266645,0.906531,0.379614,0.181984,-0.030762,0.99641,-0.078875,0.241577,0.24088,0.143908351821.64,-0.439499,-1.493525,-2.330799,0.86897,0.326413,0.183953,-0.032845,0.997016,-0.069858,0.205864,0.154687,0.151309351821.66,-0.315108,-1.478145,-2.213553,0.908753,0.395576,0.177684,-0.028673,0.995711,-0.087964,0.255114,0.300859,0.16232351821.67,-0.267542,-1.469907,-2.170044,0.921837,0.445572,0.163766,-0.026626,0.994915,-0.097135,0.245178,0.331257,0.219586351821.68,-0.226779,-1.461287,-2.134325,0.938347,0.563818,0.151807,-0.024573,0.99401,-0.106492,0.22428,0.372995,0.298707351821.69,-0.19092,-1.45269,-2.105349,0.900705,0.772877,0.143371,-0.02236,0.993034,-0.115691,0.210913,0.460717,0.341704351821.71,-0.118945,-1.440124,-2.053962,0.483488,1.157874,0.305134,-0.015462,0.991475,-0.12938,0.045018,0.633312,0.277818351821.7,-0.15672,-1.44522,-2.080625,0.748691,1.038006,0.182884,-0.019548,0.992126,-0.123711,0.171663,0.567017,0.339593351821.72,-0.076027,-1.4384,-2.021287,0.120092,1.010466,0.444421,-0.010027,0.991248,-0.131629,-0.157652,0.641213,0.179007351821.74,0.012598,-1.444279,-1.94739,-0.466155,0.682716,0.462721,0.00159,0.992007,-0.12617,-0.462909,0.67352,0.139781351821.73,-0.030978,-1.440132,-1.98427,-0.231257,0.793242,0.508214,-0.004036,0.991476,-0.130231,-0.388771,0.663157,0.092297351821.75,0.050482,-1.450105,-1.915134,-0.646213,0.558857,0.355818,0.006075,0.992726,-0.120246,-0.308032,0.608455,0.197135351821.76,0.083749,-1.458022,-1.886173,-0.883022,0.419266,0.265552,0.009414,0.993648,-0.112141,-0.123153,0.472981,0.199833351821.77,0.120007,-1.468769,-1.852972,-1.199284,0.299545,0.248207,0.012193,0.9948,-0.101117,0.042952,0.344724,0.215436351821.78,0.174213,-1.48318,-1.800778,-1.623734,0.201839,0.292848,0.015167,0.996164,-0.08618,0.176468,0.298819,0.251677351821.79,0.273672,-1.501703,-1.701999,-2.117918,0.058637,0.363713,0.018659,0.997614,-0.066469,0.246478,0.386816,0.289232351821.8,0.497689,-1.523076,-1.476395,-2.602918,-0.196528,0.439268,0.022773,0.998862,-0.041915,0.248773,0.485513,0.300033351821.81,1.134925,-1.541133,-0.8337,-3.111233,-0.620762,0.410491,0.026886,0.99956,-0.012522,0.164825,0.529599,0.269434351821.83,2.6978,-1.502806,0.751862,-4.128703,-1.270948,-0.171933,0.02917,0.99769,0.061357,-0.185237,0.608725,0.225615351821.82,2.212489,-1.534045,0.253737,-3.639471,-1.045096,0.185076,0.029435,0.999325,0.021993,-0.00293,0.564213,0.2223351821.84,2.903791,-1.465174,0.970544,-4.151291,-1.147131,-0.677551,0.024835,0.994427,0.102459,-0.318002,0.701511,0.267353351821.85,3.035306,-1.430973,1.111973,-3.495672,-0.801841,-1.274019,0.014785,0.990241,0.138582,-0.411651,0.78927,0.157866351821.86,3.139456,-1.402841,1.223767,-2.762215,-0.616361,-1.640826,0.000357,0.985929,0.167167,-0.39353,0.850833,-0.064323351821.87,-3.062053,-1.377955,1.312235,-2.362299,-0.525019,-1.691001,-0.015228,0.981464,0.191042,-0.251389,0.739148,-0.387576351821.88,-3.009836,-1.353428,1.37206,-2.376029,-0.729847,-1.36804,-0.028333,0.976468,0.213791,-0.074313,0.502139,-0.58545351821.89,-3.004201,-1.324412,1.391132,-3.02564,-1.515769,-0.633514,-0.033404,0.969801,0.241601,0.131839,0.149569,-0.977227351821.9,-3.035817,-1.289598,1.378328,-3.642117,-2.116636,0.036677,-0.029299,0.960724,0.275956,0.297304,-0.095306,-1.241105351821.91,-3.082233,-1.252706,1.359883,-3.767303,-3.203453,0.291931,-0.018554,0.949834,0.312203,0.330917,-0.007589,-1.079247351821.92,-3.138367,-1.214622,1.341575,-3.907936,-4.096054,0.562479,-0.001125,0.937238,0.348689,0.340694,0.127948,-1.001613351821.93,3.085546,-1.17376,1.323814,-4.167971,-4.331448,0.832132,0.021661,0.922211,0.38608,0.388953,0.059478,-0.620668351821.94,3.031355,-1.130262,1.308978,-4.363368,-3.978978,1.007674,0.046913,0.904524,0.423834,0.371102,-0.006422,-0.070075351821.95,2.989789,-1.085899,1.299513,-4.364421,-3.079043,0.99533,0.070487,0.884723,0.460757,0.262552,0.028912,0.140561351821.96,2.963756,-1.043408,1.295817,-4.120684,-2.080468,0.836407,0.08903,0.864124,0.495341,0.051518,0.003841,0.088338351821.97,2.94627,-1.005187,1.295062,-3.64759,-1.60465,0.741929,0.104015,0.844262,0.525739,-0.131344,-0.146737,-0.077299351821.98,2.931346,-0.972803,1.293815,-3.04225,-1.335673,0.712227,0.117495,0.826467,0.550588,-0.25072,-0.280736,-0.134267351821.99,2.918714,-0.944709,1.293044,-2.683633,-1.194232,0.640185,0.129523,0.810327,0.571484,-0.303855,-0.413598,-0.374142351822,2.903461,-0.918113,1.29152,-2.581976,-1.530871,0.739257,0.143259,0.794457,0.590182,-0.382151,-0.59208,-0.647525351822.01,2.88183,-0.890608,1.287953,-2.653492,-2.014565,0.948308,0.161544,0.777454,0.607839,-0.34407,-0.706028,-0.654546351822.02,2.8565,-0.862652,1.283237,-2.614603,-2.229283,1.07636,0.18293,0.75957,0.624171,-0.221626,-0.730029,-0.503612351822.03,2.830017,-0.83575,1.27804,-2.443414,-2.279452,1.145273,0.205585,0.741799,0.638332,-0.188846,-0.699807,-0.43951351822.04,2.803294,-0.810892,1.272154,-2.17887,-2.246876,1.186989,0.228618,0.724902,0.649808,-0.164913,-0.635058,-0.459165351822.05,2.77779,-0.78851,1.266031,-1.906018,-2.07921,1.178185,0.250826,0.709304,0.658768,-0.10399,-0.56285,-0.470947351822.06,2.754552,-0.768393,1.259908,-1.669082,-1.857221,1.143276,0.271397,0.694981,0.665842,-0.059422,-0.540684,-0.504633351822.07,2.733492,-0.750492,1.253853,-1.433142,-1.648124,1.092382,0.29025,0.681999,0.671292,-0.011716,-0.534355,-0.492779351822.08,2.714754,-0.73499,1.248203,-1.200108,-1.462805,0.989214,0.307117,0.67058,0.675279,-0.003055,-0.48073,-0.480623351822.09,2.698082,-0.722227,1.243024,-0.933848,-1.289459,0.861815,0.321979,0.661057,0.677741,-0.042727,-0.452592,-0.433326351822.1,2.683668,-0.712497,1.23827,-0.656656,-1.082139,0.715188,0.334542,0.653726,0.678767,-0.094933,-0.419656,-0.396922351822.11,2.672203,-0.705768,1.234074,-0.398299,-0.808781,0.547911,0.344283,0.648619,0.678795,-0.127334,-0.421308,-0.348671351822.13,2.659274,-0.701445,1.228135,0.082647,-0.249582,0.146804,0.354328,0.645322,0.676765,-0.095341,-0.421079,-0.215614351822.12,2.664012,-0.702109,1.230609,-0.144008,-0.5281,0.356017,0.350921,0.645829,0.678056,-0.139754,-0.420319,-0.285279351822.14,2.657426,-0.703455,1.226694,0.275789,-0.045477,-0.040052,0.354974,0.646856,0.67496,-0.051187,-0.394964,-0.173953351822.15,2.657565,-0.707593,1.226087,0.427817,0.080071,-0.188591,0.353631,0.650007,0.672634,-0.031686,-0.324766,-0.139507351822.16,2.658808,-0.713681,1.226198,0.578417,0.122509,-0.327281,0.350951,0.654621,0.669556,-0.029632,-0.239688,-0.102677351822.17,2.660203,-0.72165,1.226952,0.71793,0.073351,-0.452977,0.34759,0.660625,0.665399,-0.013423,-0.179713,-0.04046351822.18,2.661287,-0.731077,1.228447,0.812415,-0.00974,-0.568286,0.343976,0.667672,0.660223,0.005252,-0.116174,0.066873351822.19,2.662691,-0.741891,1.23081,0.912583,-0.011858,-0.692332,0.339702,0.675683,0.654259,0.006489,-0.064629,0.160957351822.2,2.665678,-0.75419,1.234103,1.014265,0.11612,-0.815691,0.333913,0.684698,0.647835,0.025203,-0.027853,0.232261351822.21,2.67098,-0.767859,1.23784,1.139338,0.328607,-0.885715,0.326199,0.694597,0.641194,0.062229,0.003279,0.19279351822.22,2.677772,-0.783506,1.240949,1.370746,0.509064,-0.914139,0.316936,0.705767,0.633596,0.126683,-0.044238,0.091593351822.23,2.685399,-0.800762,1.2427,1.532186,0.688078,-0.863088,0.306682,0.717886,0.624968,0.222676,-0.103796,0.188005351822.24,2.693077,-0.81766,1.242166,1.554683,0.853573,-0.647708,0.296571,0.729547,0.616284,0.34204,0.003042,0.215763351822.25,2.699528,-0.834901,1.238736,1.718436,0.913556,-0.531144,0.287166,0.74123,0.606724,0.383504,0.256863,0.136806351822.26,2.706153,-0.853343,1.236686,1.728974,0.783312,-0.721785,0.277326,0.753483,0.596116,0.228961,0.627911,0.43344351822.27,2.715351,-0.871845,1.237219,1.6717,0.996146,-0.817958,0.266021,0.765517,0.585846,0.016663,1.127503,0.756027351822.28,2.730867,-0.890247,1.23771,1.688687,1.673504,-0.775015,0.251232,0.777227,0.576888,-0.107128,1.329843,0.464982351822.29,2.74819,-0.908896,1.239071,1.691962,1.554713,-0.841895,0.235603,0.788826,0.567666,-0.031669,0.943215,-0.005533351822.3,2.762962,-0.926912,1.242988,1.556319,1.064085,-0.919539,0.221902,0.79977,0.557788,0.043585,0.322636,-0.036105351822.31,2.776345,-0.944082,1.248587,1.519761,0.875105,-0.973741,0.209481,0.809959,0.547799,0.035559,-0.09127,0.021125351822.32,2.790968,-0.962309,1.25516,1.618564,0.969505,-1.010536,0.196345,0.820514,0.536848,0.020025,-0.376452,0.018999351822.33,2.807154,-0.982017,1.261409,1.80273,1.162094,-0.995632,0.182286,0.831619,0.524577,0.02798,-0.592941,-0.017817351822.34,2.824509,-1.00326,1.266888,1.971733,1.322827,-0.965814,0.167609,0.843228,0.510759,0.051691,-0.726391,-0.0253351822.35,2.842347,-1.025686,1.271754,2.111488,1.389888,-0.922088,0.152857,0.85507,0.495469,0.052007,-0.731977,-0.06009351822.37,2.871259,-1.073099,1.274841,2.329789,1.302794,-0.596392,0.127492,0.878684,0.460065,-0.035176,-0.423698,-0.116895351822.36,2.858399,-1.049226,1.274966,2.266228,1.320888,-0.802009,0.139221,0.867038,0.478397,0.032777,-0.623568,-0.119342351822.38,2.880732,-1.09747,1.270986,2.450351,1.311982,-0.436274,0.117569,0.890057,0.440427,-0.111084,-0.129956,-0.114438351822.39,2.889151,-1.122991,1.264939,2.595565,1.424914,-0.3873,0.108147,0.9014,0.419265,-0.186409,0.273802,-0.09117351822.4,2.899398,-1.150494,1.25944,2.798573,1.579419,-0.486365,0.097861,0.912966,0.396128,-0.177634,0.639342,-0.093775351822.41,2.915646,-1.179671,1.258606,2.868021,1.75488,-0.705179,0.085406,0.924481,0.371539,-0.220157,0.801639,-0.179095351822.42,2.938923,-1.207746,1.264859,2.651314,1.73212,-0.861824,0.071482,0.934818,0.347859,-0.278772,0.774273,-0.272282351822.43,2.965258,-1.233002,1.276919,2.34409,1.432109,-0.887087,0.058136,0.943488,0.326268,-0.327469,0.579324,-0.364979351822.44,2.991946,-1.255257,1.29196,2.079235,1.213548,-0.827874,0.046267,0.950629,0.30686,-0.297594,0.334039,-0.319647351822.45,3.01871,-1.27591,1.307937,1.985491,1.152529,-0.736681,0.035624,0.956835,0.288439,-0.229609,0.125593,-0.223986351822.46,3.044295,-1.296276,1.32242,2.004924,1.202403,-0.595719,0.026334,0.962555,0.269803,-0.15666,0.004669,-0.150906351822.47,3.068451,-1.316844,1.333786,2.055593,1.376023,-0.433495,0.018359,0.967927,0.25056,-0.095141,-0.038712,-0.07986351822.48,3.090018,-1.337718,1.340673,2.099655,1.532716,-0.252068,0.011907,0.97296,0.230667,-0.028921,-0.047926,-0.076645351822.49,3.104941,-1.358803,1.341373,2.127616,1.373863,-0.062351,0.00771,0.977613,0.210268,0.042644,-0.020918,-0.182131351822.5,3.114237,-1.378939,1.339127,1.986511,1.078013,-0.029587,0.005216,0.981652,0.190611,0.158465,0.062263,-0.210203351822.51,3.126573,-1.397403,1.344363,1.82571,0.590268,-0.169388,0.002591,0.985005,0.172506,0.211001,0.136745,-0.242101351822.52,3.139563,-1.415036,1.356036,1.767419,0.007934,-0.211911,0.000315,0.987894,0.155131,0.097143,0.123816,-0.244288351822.53,-3.134601,-1.431793,1.366995,1.64333,-0.192719,-0.124831,-0.000969,0.990355,0.138553,0.050758,0.018251,-0.131152351822.54,-3.12841,-1.446512,1.373683,1.438708,0.020409,-0.068535,-0.001634,0.992287,0.123954,0.027727,-0.039635,0.024011351822.55,-3.116459,-1.460086,1.383676,1.359735,0.261413,-0.103054,-0.002777,0.993878,0.110449,0.045349,-0.101681,0.102945351822.56,-3.095985,-1.473458,1.400301,1.35094,0.440423,-0.129298,-0.004431,0.995266,0.097084,0.036688,-0.17915,0.128532351822.58,-3.016602,-1.497895,1.466451,1.179737,0.782743,-0.203368,-0.00908,0.997344,0.072268,0.108781,-0.272368,0.130323351822.57,-3.064594,-1.486201,1.425818,1.276191,0.654717,-0.170106,-0.006499,0.996424,0.084244,0.059585,-0.217921,0.131149351822.59,-2.956305,-1.5084,1.518521,1.077385,0.854582,-0.186326,-0.011488,0.998054,0.061288,0.087004,-0.33892,0.13436351822.6,-2.870827,-1.517822,1.595623,1.011566,0.855523,-0.23602,-0.014162,0.998597,0.051021,0.064303,-0.359452,0.144857351822.61,-2.74514,-1.526368,1.713179,1.005282,0.819073,-0.270132,-0.01715,0.999013,0.040968,0.067229,-0.363698,0.173234351822.62,-2.567234,-1.534172,1.883391,1.018826,0.790444,-0.237895,-0.019893,0.999329,0.030741,0.048351,-0.348481,0.202261351822.63,-2.319249,-1.540563,2.122946,1.003935,0.896324,-0.194568,-0.02215,0.999543,0.020571,0.017099,-0.329514,0.263899351822.64,-1.991378,-1.544639,2.440867,0.959301,1.05457,-0.14632,-0.023875,0.999658,0.010679,-0.030721,-0.311792,0.26636351822.65,-1.635597,-1.54554,2.785556,0.858018,1.144587,-0.120782,-0.025201,0.999681,0.001635,-0.057532,-0.297456,0.208371351822.66,-1.331754,-1.543949,3.07842,0.750825,1.097141,-0.082067,-0.026081,0.99964,-0.006356,-0.07066,-0.296545,0.122643351822.67,-1.102524,-1.541111,-2.984844,0.667581,0.884367,-0.039439,-0.026486,0.999559,-0.013396,-0.069171,-0.294497,0.042663351822.68,-0.929666,-1.537612,-2.81813,0.623504,0.538074,-0.015285,-0.02659,0.999449,-0.019844,-0.045447,-0.280425,-0.0046351822.69,-0.801733,-1.533851,-2.693222,0.566865,0.249357,0.002179,-0.026542,0.999318,-0.025688,-0.019586,-0.272023,0.014015351822.7,-0.704114,-1.530097,-2.597043,0.525778,0.134412,0.019253,-0.02634,0.999172,-0.031012,-0.014645,-0.254253,0.069784351822.71,-0.621446,-1.525994,-2.515828,0.553634,0.170611,0.02259,-0.026075,0.998997,-0.036413,-0.019686,-0.188526,0.112814351822.73,-0.464733,-1.514969,-2.365378,0.747443,0.411271,0.055584,-0.025008,0.998442,-0.049881,0.046111,-0.022719,0.117859351822.72,-0.54225,-1.521022,-2.439168,0.644733,0.298388,0.033675,-0.025676,0.998762,-0.042617,0.001201,-0.101606,0.134581351822.74,-0.393299,-1.50815,-2.298294,0.800746,0.456103,0.086878,-0.023993,0.998038,-0.057826,0.08248,0.009118,0.076258351822.75,-0.329615,-1.501038,-2.238761,0.812048,0.416876,0.128738,-0.022561,0.997568,-0.065949,0.116051,0.017798,0.033509351822.76,-0.272111,-1.493896,-2.184899,0.806191,0.374558,0.180067,-0.020648,0.997045,-0.073998,0.1496,0.044398,0.043236351822.77,-0.218141,-1.48662,-2.134587,0.815517,0.396164,0.229199,-0.018195,0.996459,-0.082084,0.178413,0.120484,0.091865351822.78,-0.167854,-1.478805,-2.088807,0.865907,0.505998,0.251729,-0.015347,0.995772,-0.090571,0.18768,0.214601,0.161738351822.79,-0.12277,-1.470271,-2.050071,0.916859,0.714815,0.244067,-0.01229,0.994952,-0.099601,0.180152,0.307752,0.215812351822.8,-0.083574,-1.461326,-2.019728,0.931826,0.978013,0.21991,-0.00912,0.994014,-0.108871,0.174907,0.408909,0.238342351822.82,-0.018608,-1.444204,-1.97958,0.801112,1.393013,0.19082,-0.002349,0.991998,-0.126233,0.117248,0.564872,0.188321351822.81,-0.049545,-1.452395,-1.99714,0.905143,1.228511,0.192226,-0.00585,0.992999,-0.11798,0.168905,0.500425,0.225036351822.83,0.011364,-1.437721,-1.96311,0.597941,1.355381,0.221194,0.001508,0.991158,