timestamp,attitude_roll,attitude_pitch,attitude_yaw,rotation_rate_x,rotation_rate_y,rotation_rate_z,gravity_x,gravity_y,gravity_z,user_acc_x,user_acc_y,user_acc_z1460310429,-1.461042,-0.569276,0.512871,0.538212,-0.624079,-2.025688,-0.837223,0.539022,-0.092259,-0.231029,0.492121,-0.254681460310429,-1.464271,-0.548903,0.517466,0.640705,-0.558068,-1.996165,-0.848262,0.521752,-0.090705,-0.165074,0.423683,-0.2744381460310429,-1.466475,-0.528414,0.523635,0.788126,-0.539325,-2.00241,-0.858913,0.504164,-0.089929,-0.100041,0.353776,-0.2863681460310429,-1.468124,-0.507613,0.531628,0.953566,-0.579347,-2.018997,-0.869305,0.486093,-0.089569,-0.031818,0.293998,-0.2823031460310429,-1.469836,-0.486538,0.541257,1.101758,-0.65661,-2.030283,-0.879456,0.467568,-0.089093,0.031036,0.247413,-0.263081460310429,-1.47198,-0.46531,0.552412,1.243375,-0.758307,-2.029808,-0.889323,0.4487,-0.088167,0.085612,0.212097,-0.2344651460310429,-1.474831,-0.444058,0.565105,1.391241,-0.882349,-2.018532,-0.898861,0.429607,-0.086525,0.135418,0.193394,-0.2144091460310429,-1.478644,-0.422782,0.579347,1.53376,-1.02241,-2.013662,-0.908082,0.410299,-0.08392,0.178147,0.178416,-0.2034641460310429,-1.483545,-0.401462,0.594879,1.648596,-1.151759,-2.013336,-0.916989,0.390765,-0.080212,0.215588,0.169218,-0.1898081460310429,-1.489516,-0.380057,0.611257,1.718779,-1.256539,-2.026287,-0.925578,0.370973,-0.075397,0.248713,0.170164,-0.1672791460310429,-1.496544,-0.358517,0.628106,1.757073,-1.341025,-2.04812,-0.933838,0.350886,-0.069467,0.295044,0.155218,-0.1422031460310429,-1.504313,-0.336821,0.645043,1.750776,-1.369978,-2.076916,-0.941725,0.330489,-0.062701,0.317122,0.169878,-0.1382421460310429,-1.512522,-0.315035,0.661541,1.693355,-1.356104,-2.10095,-0.949172,0.30985,-0.055375,0.336638,0.188075,-0.1337881460310429,-1.520979,-0.29316,0.677291,1.610422,-1.316581,-2.127419,-0.956148,0.288979,-0.047672,0.349703,0.21215,-0.128141460310429,-1.529461,-0.271244,0.692161,1.514689,-1.258848,-2.14658,-0.962615,0.267931,-0.039813,0.365402,0.243086,-0.1301851460310429,-1.537884,-0.249377,0.706085,1.413556,-1.19463,-2.154064,-0.968542,0.2468,-0.031888,0.385549,0.273754,-0.1318231460310429,-1.546094,-0.227713,0.719148,1.317659,-1.121783,-2.143376,-0.973888,0.22575,-0.024063,0.402157,0.309528,-0.133531460310429,-1.553984,-0.206336,0.731312,1.218569,-1.038226,-2.126346,-0.97865,0.204875,-0.016455,0.422711,0.337346,-0.1273751460310429,-1.561408,-0.18528,0.74267,1.129044,-0.948255,-2.102841,-0.982841,0.184222,-0.009227,0.433922,0.358869,-0.120321460310429,-1.568329,-0.1646,0.753129,1.022374,-0.85925,-2.070941,-0.986481,0.163858,-0.002434,0.452423,0.380011,-0.1100841460310429,-1.574797,-0.144372,0.762365,0.882535,-0.775433,-2.030772,-0.989589,0.143871,0.003959,0.470652,0.404515,-0.1003031460310429,-1.580635,-0.124453,0.770162,0.725884,-0.659712,-2.012202,-0.992218,0.124132,0.009763,0.486419,0.452634,-0.0807011460310429,-1.585172,-0.10503,0.776421,0.558371,-0.491393,-1.942634,-0.994387,0.104837,0.014296,0.514864,0.468085,-0.0676561460310429,-1.588955,-0.08687,0.780754,0.356964,-0.404643,-1.801575,-0.996065,0.086761,0.01809,0.542574,0.491867,-0.0819021460310429,-1.595892,-0.054432,0.785698,0.150244,-0.37046,-1.541884,-0.998205,0.054405,0.025056,0.585454,0.513421,-0.1235671460310429,-1.592387,-0.070028,0.783652,0.230219,-0.362971,-1.673609,-0.997317,0.069971,0.021536,0.573565,0.508826,-0.0973571460310429,-1.599628,-0.040258,0.787208,0.105382,-0.387575,-1.399145,-0.998774,0.040247,0.028805,0.58668,0.535757,-0.1436571460310429,-1.603485,-0.027388,0.788632,0.104426,-0.393167,-1.269939,-0.999091,0.027384,0.032671,0.582526,0.572561,-0.1535361460310429,-1.607153,-0.015802,0.789925,0.081161,-0.363496,-1.138898,-0.999214,0.015801,0.036344,0.579903,0.62905,-0.1469861460310429,-1.61036,-0.005691,0.790657,0.017213,-0.309008,-0.979459,-0.999201,0.00569,0.039552,0.568522,0.696229,-0.1331041460310429,-1.612883,0.002535,0.790435,-0.084367,-0.23493,-0.773426,-0.999111,-0.002535,0.042074,0.560299,0.76224,-0.1201531460310429,-1.614511,0.008404,0.788848,-0.22146,-0.139117,-0.517585,-0.999009,-0.008403,0.0437,0.555482,0.810253,-0.1130511460310429,-1.614969,0.011474,0.785644,-0.375853,-0.018464,-0.21926,-0.998959,-0.011474,0.044155,0.560635,0.822616,-0.1191671460310429,-1.61189,0.008942,0.774858,-0.608658,0.248131,0.363029,-0.999116,-0.008942,0.04108,0.574265,0.736374,-0.1661871460310429,-1.61409,0.011606,0.780832,-0.518469,0.117098,0.081259,-0.998996,-0.011605,0.043277,0.566974,0.79313,-0.1383851460310429,-1.608551,0.003739,0.768439,-0.623938,0.358473,0.609211,-0.99928,-0.003739,0.037746,0.570173,0.677918,-0.1911881460310429,-1.604539,-0.003625,0.76248,-0.551558,0.416051,0.812541,-0.999424,0.003625,0.033736,0.526768,0.682135,-0.1949751460310429,-1.600199,-0.012953,0.757393,-0.467475,0.449032,1.00964,-0.999484,0.012953,0.029396,0.44443,0.816042,-0.1470261460310429,-1.595769,-0.024856,0.752181,-0.512188,0.459444,1.292172,-0.999379,0.024853,0.024963,0.389028,0.953144,-0.0931541460310429,-1.587146,-0.060109,0.7394,-0.645291,0.445785,2.122828,-0.998061,0.060073,0.016319,0.332381,0.997666,-0.0716781460310429,-1.591324,-0.040321,0.746087,-0.599259,0.46953,1.674704,-0.998977,0.04031,0.02051,0.362578,1.009602,-0.0695971460310429,-1.583896,-0.084425,0.732761,-0.620066,0.346128,2.570737,-0.996353,0.084325,0.013053,0.297195,0.914439,-0.1025451460310429,-1.582056,-0.112639,0.727084,-0.500441,0.207306,2.936303,-0.9936,0.112401,0.011188,0.226968,0.772242,-0.1456181460310429,-1.581306,-0.143307,0.723194,-0.301557,0.101341,3.133757,-0.989694,0.142817,0.010402,0.131418,0.60201,-0.1803851460310429,-1.580893,-0.174273,0.721698,-0.05385,0.058888,3.10615,-0.984803,0.173392,0.009944,0.030991,0.464257,-0.181881460310429,-1.580032,-0.203998,0.722399,0.139474,0.08514,2.956137,-0.979223,0.202586,0.009044,-0.046763,0.378255,-0.1622581460310429,-1.57803,-0.231962,0.724154,0.206298,0.195787,2.7738,-0.973192,0.229888,0.00704,-0.126189,0.351457,-0.1070311460310429,-1.574436,-0.258138,0.725946,0.17614,0.358978,2.594728,-0.966861,0.255281,0.003519,-0.202131,0.380995,-0.0491881460310429,-1.569788,-0.282663,0.726862,0.059179,0.463878,2.434296,-0.960316,0.278914,-0.000968,-0.272244,0.453218,-0.01311460310430,-1.565185,-0.305883,0.726346,-0.097902,0.478514,2.316497,-0.953566,0.301136,-0.005351,-0.336137,0.547589,0.0102031460310430,-1.561195,-0.328453,0.724205,-0.264097,0.468002,2.265962,-0.946499,0.322579,-0.009088,-0.373798,0.624656,0.0199981460310430,-1.557759,-0.351029,0.720318,-0.44027,0.484574,2.279323,-0.93894,0.343864,-0.012242,-0.381953,0.626793,-0.0003921460310430,-1.554542,-0.373853,0.714625,-0.61096,0.546996,2.294729,-0.930804,0.365205,-0.015131,-0.378888,0.572371,-0.0313021460310430,-1.550917,-0.396371,0.707481,-0.736091,0.673909,2.240934,-0.922286,0.386073,-0.018337,-0.386094,0.484013,-0.0545851460310430,-1.546021,-0.417944,0.699367,-0.819985,0.869649,2.127496,-0.913645,0.405883,-0.022641,-0.371389,0.384767,-0.0847661460310430,-1.539496,-0.438222,0.690587,-0.871635,1.073665,1.98762,-0.905064,0.42433,-0.028338,-0.331798,0.272951,-0.1038341460310430,-1.531665,-0.457124,0.681784,-0.857287,1.203856,1.837866,-0.896638,0.44137,-0.035105,-0.284743,0.168906,-0.1184751460310430,-1.522659,-0.4744,0.673788,-0.772492,1.288935,1.667509,-0.888537,0.456805,-0.042805,-0.223371,0.082334,-0.0974691460310430,-1.512917,-0.490151,0.666711,-0.698712,1.316581,1.516448,-0.880784,0.470759,-0.051036,-0.156173,0.003545,-0.0660451460310430,-1.502915,-0.504568,0.660367,-0.639043,1.314522,1.383506,-0.873368,0.483429,-0.059376,-0.084488,-0.056793,-0.0219381460310430,-1.482709,-0.530221,0.64834,-0.633365,1.320783,1.19241,-0.85935,0.505724,-0.075895,0.050574,-0.165652,0.0429051460310430,-1.492781,-0.517785,0.65438,-0.62001,1.317985,1.263006,-0.866275,0.494957,-0.06772,-0.018689,-0.114036,0.0187551460310430,-1.47284,-0.542359,0.642174,-0.64922,1.307858,1.164549,-0.852387,0.516158,-0.083765,0.106126,-0.211165,0.0714511460310430,-1.455085,-0.566371,0.630066,-0.63895,1.139189,1.139524,-0.838211,0.536573,-0.097426,0.159714,-0.268873,0.1167891460310430,-1.463495,-0.554405,0.636039,-0.649332,1.24699,1.150852,-0.845324,0.526438,-0.091054,0.143175,-0.246805,0.093481460310430,-1.447889,-0.578232,0.624141,-0.64566,1.02075,1.124875,-0.831113,0.546544,-0.102668,0.169706,-0.28098,0.1439271460310430,-1.442135,-0.590133,0.617671,-0.711129,0.916422,1.123552,-0.823999,0.556472,-0.106606,0.1737,-0.287322,0.1602861460310430,-1.437784,-0.602322,0.609988,-0.827777,0.865664,1.139772,-0.816744,0.566558,-0.109282,0.169695,-0.294493,0.1664411460310430,-1.434491,-0.614925,0.600704,-0.966698,0.87153,1.163101,-0.809241,0.576897,-0.110992,0.156821,-0.293587,0.1624911460310430,-1.432037,-0.628015,0.589737,-1.105586,0.899828,1.192768,-0.801418,0.58754,-0.111924,0.14149,-0.290375,0.1403661460310430,-1.4302,-0.641671,0.577358,-1.211459,0.933448,1.23552,-0.793192,0.598535,-0.112261,0.124109,-0.289361,0.1070571460310430,-1.428955,-0.655925,0.564009,-1.27797,0.940333,1.284036,-0.784525,0.609893,-0.112031,0.099177,-0.290618,0.0731671460310430,-1.428053,-0.670746,0.550328,-1.285851,0.938568,1.339495,-0.775391,0.62157,-0.11144,0.065888,-0.283054,0.0535331460310430,-1.427367,-0.686107,0.537138,-1.227752,0.888662,1.399947,-0.765773,0.63353,-0.110594,0.030803,-0.283157,0.018951460310430,-1.426785,-0.701821,0.525254,-1.107782,0.801185,1.448239,-0.755763,0.645609,-0.109597,-0.016118,-0.290705,-0.0051191460310430,-1.426028,-0.733451,0.506244,-0.852519,0.590568,1.475662,-0.735097,0.669438,-0.107169,-0.141016,-0.30225,-0.0100491460310430,-1.426329,-0.717691,0.51499,-0.974931,0.694359,1.477483,-0.745479,0.657647,-0.108453,-0.074422,-0.29519,-0.0125191460310430,-1.426009,-0.748834,0.498676,-0.75976,0.494144,1.444731,-0.724819,0.680785,-0.105684,-0.204548,-0.314162,-0.0017681460310430,-1.426304,-0.763752,0.491921,-0.691441,0.420153,1.409248,-0.71472,0.691636,-0.103997,-0.256045,-0.325273,-0.0021441460310430,-1.426792,-0.778206,0.485937,-0.617721,0.355718,1.369511,-0.704803,0.702003,-0.102202,-0.309647,-0.333045,-0.0131081460310430,-1.4271,-0.792021,0.481168,-0.505463,0.29429,1.316222,-0.695169,0.711774,-0.100587,-0.361197,-0.343152,-0.0276631460310430,-1.42676,-0.804932,0.478168,-0.359908,0.23687,1.236516,-0.685983,0.720783,-0.099495,-0.414573,-0.356022,-0.0343851460310430,-1.425779,-0.816624,0.476947,-0.220548,0.17287,1.124745,-0.677499,0.728838,-0.098944,-0.457907,-0.367083,-0.0325111460310430,-1.424285,-0.826911,0.477177,-0.108769,0.122702,0.995606,-0.669897,0.735843,-0.098856,-0.503733,-0.365406,-0.020011460310430,-1.422265,-0.835757,0.478512,-0.020359,0.098171,0.862983,-0.663233,0.741804,-0.099242,-0.553641,-0.349043,-0.0079211460310430,-1.419825,-0.843204,0.480875,0.06796,0.056604,0.734682,-0.657509,0.746778,-0.100026,-0.602653,-0.319791,-0.0043591460310430,-1.417109,-0.849224,0.48447,0.172202,-0.019155,0.602352,-0.65278,0.750768,-0.101122,-0.651908,-0.284475,0.0018481460310430,-1.414553,-0.853828,0.489288,0.265556,-0.140691,0.47754,-0.649098,0.753801,-0.10225,-0.695293,-0.249712,0.006411460310430,-1.412679,-0.857139,0.494901,0.32683,-0.269576,0.356742,-0.646437,0.755973,-0.103073,-0.732317,-0.226691,0.0144351460310430,-1.411635,-0.859003,0.500598,0.341561,-0.34201,0.204401,-0.644937,0.757191,-0.103524,-0.745001,-0.240544,0.0164881460310430,-1.411245,-0.859151,0.505378,0.290737,-0.311055,0.014873,-0.644786,0.757288,-0.103758,-0.734365,-0.287424,0.0202931460310430,-1.411408,-0.857322,0.508032,0.166881,-0.183102,-0.214026,-0.646169,0.756092,-0.103873,-0.725275,-0.31107,0.0195071460310430,-1.412454,-0.853467,0.507653,-0.007098,-0.044354,-0.444462,-0.649151,0.753564,-0.103656,-0.755314,-0.239846,0.0037571460310430,-1.414839,-0.847955,0.504523,-0.146571,-0.000274,-0.620923,-0.65349,0.749929,-0.102751,-0.833006,-0.068426,-0.0350821460310430,-1.417926,-0.841356,0.50068,-0.138524,-0.030737,-0.714722,-0.65868,0.745548,-0.101484,-0.880993,0.082013,-0.0820331460310430,-1.419881,-0.83426,0.49878,0.032263,-0.061156,-0.728089,-0.664091,0.7408,-0.10099,-0.873888,0.118011,-0.1244281460310430,-1.419446,-0.826459,0.500374,0.291986,-0.078209,-0.781294,-0.66974,0.735537,-0.102146,-0.796096,0.02429,-0.14591460310430,-1.416875,-0.816977,0.505076,0.514069,-0.091557,-0.941614,-0.676336,0.72908,-0.104933,-0.698129,-0.12233,-0.1270921460310430,-1.41357,-0.805219,0.511042,0.609585,-0.108155,-1.167093,-0.684406,0.720983,-0.108502,-0.607251,-0.233495,-0.0863981460310430,-1.410732,-0.790927,0.516836,0.634802,-0.14394,-1.423025,-0.694198,0.711006,-0.112075,-0.524064,-0.28971,-0.0573891460310430,-1.409032,-0.774229,0.522102,0.641559,-0.227533,-1.658685,-0.705626,0.699165,-0.115152,-0.466966,-0.267051,-0.0394511460310430,-1.408983,-0.755522,0.526878,0.648873,-0.368445,-1.851457,-0.718405,0.685669,-0.117273,-0.426691,-0.181503,-0.0365511460310430,-1.411038,-0.735269,0.53138,0.66096,-0.56878,-1.994891,-0.732206,0.670786,-0.117982,-0.409609,-0.05099,-0.0485831460310430,-1.415355,-0.714059,0.53602,0.690587,-0.807146,-2.072925,-0.746598,0.654907,-0.116996,-0.403579,0.098313,-0.0722591460310430,-1.421899,-0.692582,0.541122,0.726071,-1.053614,-2.079343,-0.761084,0.638527,-0.114169,-0.402871,0.241661,-0.1016061460310430,-1.430204,-0.671418,0.547001,0.776243,-1.258191,-2.030237,-0.775215,0.622097,-0.109713,-0.400551,0.372623,-0.1316351460310430,-1.439445,-0.651014,0.55382,0.830696,-1.377226,-1.941846,-0.788617,0.605994,-0.104186,-0.400775,0.461725,-0.1581581460310430,-1.448574,-0.631625,0.56152,0.874743,-1.377743,-1.833618,-0.801049,0.590457,-0.098397,-0.386009,0.503309,-0.1771311460310430,-1.456764,-0.613236,0.569725,0.888302,-1.27804,-1.741975,-0.812479,0.575517,-0.093052,-0.360266,0.490981,-0.1863511460310430,-1.46358,-0.595421,0.577988,0.875767,-1.119948,-1.704124,-0.823159,0.560857,-0.088596,-0.326973,0.436473,-0.1890831460310430,-1.469013,-0.57759,0.58594,0.842381,-0.950461,-1.729487,-0.833445,0.546006,-0.085125,-0.292333,0.366225,-0.1888621460310430,-1.476522,-0.539771,0.60002,0.755195,-0.641111,-1.923379,-0.854017,0.51394,-0.080752,-0.200365,0.225059,-0.1750321460310430,-1.473309,-0.559175,0.593278,0.793336,-0.792999,-1.809405,-0.843668,0.530487,-0.082509,-0.252767,0.290436,-0.1826431460310430,-1.478685,-0.519182,0.606406,0.745853,-0.514954,-2.046633,-0.864545,0.49617,-0.079861,-0.142871,0.178711,-0.1574131460310430,-1.480231,-0.497452,0.61285,0.77458,-0.466672,-2.157574,-0.8752,0.477187,-0.07948,-0.074934,0.150895,-0.1463811460310430,-1.481904,-0.474706,0.619854,0.848746,-0.516517,-2.251806,-0.885916,0.457077,-0.078959,-0.010233,0.136582,-0.1284541460310430,-1.484316,-0.45105,0.627819,0.952468,-0.634611,-2.33276,-0.896626,0.435911,-0.077735,0.049992,0.138948,-0.1110471460310430,-1.487863,-0.426682,0.636856,1.054898,-0.782441,-2.39442,-0.907215,0.413853,-0.075412,0.107395,0.147121,-0.1025061460310430,-1.492623,-0.401728,0.64677,1.131701,-0.912024,-2.448881,-0.917576,0.391009,-0.071876,0.158161,0.154401,-0.0855491460310430,-1.498443,-0.376326,0.657139,1.161584,-1.004083,-2.492119,-0.927588,0.367506,-0.067231,0.200354,0.171739,-0.0712121460310430,-1.512268,-0.324666,0.677709,1.117,-1.064067,-2.555324,-0.946135,0.318992,-0.055439,0.272627,0.215722,-0.060971460310430,-1.505096,-0.350597,0.667547,1.153147,-1.054417,-2.530479,-0.937142,0.343458,-0.061659,0.23925,0.191088,-0.0638291460310430,-1.519704,-0.298702,0.687459,1.0627,-1.044784,-2.565466,-0.954472,0.29428,-0.048809,0.299733,0.242876,-0.0650221460310430,-1.527172,-0.272849,0.696597,0.985969,-1.000827,-2.561997,-0.962091,0.269476,-0.041998,0.329446,0.276346,-0.066661460310430,-1.534491,-0.247077,0.704965,0.896536,-0.937674,-2.564036,-0.968992,0.244571,-0.035195,0.362745,0.31355,-0.0739661460310430,-1.541432,-0.221608,0.712656,0.818637,-0.86261,-2.531843,-0.975125,0.219799,-0.028642,0.394772,0.346989,-0.080581460310430,-1.548083,-0.19672,0.719778,0.753319,-0.806636,-2.477059,-0.98046,0.195453,-0.022273,0.426597,0.373669,-0.0954181460310430,-1.554446,-0.17252,0.726614,0.7167,-0.755987,-2.408128,-0.985024,0.171666,-0.016107,0.454079,0.398052,-0.1005011460310430,-1.560489,-0.148929,0.733225,0.681334,-0.699081,-2.361628,-0.988878,0.148379,-0.010193,0.482515,0.431424,-0.1010891460310430,-1.565766,-0.126013,0.739632,0.64587,-0.597171,-2.280029,-0.992058,0.12568,-0.004991,0.521737,0.460273,-0.0723871460310430,-1.570716,-0.104515,0.745365,0.556291,-0.559714,-2.127168,-0.994543,0.104324,-0.00008,0.555029,0.470673,-0.0732081460310430,-1.57561,-0.084555,0.750424,0.488034,-0.536197,-1.977283,-0.996416,0.084454,0.004796,0.586092,0.497074,-0.067831460310430,-1.580576,-0.066224,0.754949,0.424893,-0.536035,-1.808062,-0.99776,0.066175,0.009758,0.616428,0.504458,-0.0708851460310430,-1.585594,-0.049728,0.758874,0.359543,-0.524037,-1.62288,-0.998654,0.049707,0.014779,0.631909,0.519125,-0.0833831460310430,-1.590294,-0.035047,0.762368,0.316766,-0.473734,-1.44082,-0.999196,0.03504,0.019485,0.642568,0.53953,-0.0914911460310430,-1.594289,-0.022204,0.765498,0.277267,-0.390349,-1.253494,-0.999478,0.022202,0.023485,0.660031,0.555968,-0.0946981460310430,-1.597395,-0.011407,0.768156,0.228029,-0.291849,-1.040672,-0.999581,0.011407,0.026594,0.681298,0.569419,-0.0983871460310430,-1.599654,-0.002855,0.770268,0.176465,-0.210292,-0.809667,-0.99958,0.002855,0.028854,0.704063,0.572325,-0.0975341460310430,-1.601252,0.003435,0.771813,0.122734,-0.146883,-0.582897,-0.99953,-0.003435,0.030451,0.709034,0.579149,-0.0979411460310430,-1.6024,0.00756,0.772656,0.0519,-0.105867,-0.363683,-0.999472,-0.00756,0.031598,0.692252,0.603736,-0.0935481460310430,-1.603203,0.009543,0.772514,-0.046715,-0.073305,-0.144686,-0.999429,-0.009542,0.0324,0.670374,0.635305,-0.0905361460310430,-1.603746,0.009304,0.771162,-0.166817,-0.051262,0.088037,-0.999414,-0.009304,0.032942,0.638223,0.672283,-0.0880871460310430,-1.604175,0.006618,0.768441,-0.297833,-0.045024,0.346338,-0.999421,-0.006618,0.033372,0.597306,0.719524,-0.0964971460310430,-1.604622,0.001296,0.764446,-0.410831,-0.046214,0.618699,-0.999427,-0.001296,0.033819,0.554878,0.751723,-0.1213281460310430,-1.605005,-0.006697,0.75965,-0.463975,-0.033732,0.887271,-0.999393,0.006697,0.034201,0.51018,0.758058,-0.1631841460310430,-1.60522,-0.017102,0.754926,-0.423959,-0.007856,1.122446,-0.999261,0.017101,0.034412,0.470117,0.725468,-0.2084081460310430,-1.60498,-0.029631,0.751232,-0.290718,0.050608,1.324168,-0.998977,0.029627,0.034162,0.445342,0.66561,-0.2423221460310430,-1.60392,-0.044034,0.74913,-0.119844,0.136541,1.501577,-0.998483,0.044019,0.033085,0.419793,0.609408,-0.2560621460310430,-1.602087,-0.059912,0.748392,0.000049,0.204215,1.634819,-0.997717,0.059876,0.03123,0.350897,0.627609,-0.2281751460310431,-1.599788,-0.077065,0.747772,-0.026381,0.246698,1.766861,-0.996613,0.076989,0.028901,0.248642,0.741005,-0.1750191460310431,-1.596953,-0.096013,0.746035,-0.158927,0.32194,1.974756,-0.995054,0.095866,0.026033,0.177274,0.84638,-0.1166551460310431,-1.59343,-0.117762,0.742949,-0.284659,0.410563,2.279835,-0.99282,0.11749,0.022475,0.129859,0.876941,-0.0892631460310431,-1.589513,-0.142666,0.739076,-0.345552,0.450043,2.599508,-0.989667,0.142183,0.018526,0.098233,0.845518,-0.0840161460310431,-1.585973,-0.170454,0.735213,-0.328495,0.400511,2.873151,-0.985394,0.16963,0.014956,0.076611,0.747866,-0.1011831460310431,-1.583241,-0.200298,0.73211,-0.239354,0.311789,3.050376,-0.979931,0.198962,0.012196,0.04205,0.606855,-0.1285441460310431,-1.580917,-0.230737,0.730567,-0.073119,0.253817,3.062679,-0.973448,0.228695,0.009853,-0.012331,0.443683,-0.1511341460310431,-1.578571,-0.260057,0.730855,0.092271,0.225755,2.911519,-0.966346,0.257136,0.007513,-0.092599,0.323888,-0.1514951460310431,-1.575907,-0.287231,0.732196,0.155908,0.23693,2.679271,-0.959019,0.283298,0.004902,-0.167659,0.25465,-0.1254771460310431,-1.572847,-0.311883,0.733375,0.102451,0.290934,2.422381,-0.951755,0.306852,0.001952,-0.232846,0.22391,-0.0734241460310431,-1.569315,-0.334183,0.733248,-0.056764,0.384874,2.195413,-0.944678,0.327998,-0.001399,-0.290247,0.248953,-0.0350231460310431,-1.56567,-0.35468,0.730945,-0.283718,0.46659,2.02982,-0.937745,0.34729,-0.004807,-0.34204,0.320419,-0.0046381460310431,-1.562268,-0.37412,0.726243,-0.511294,0.525313,1.939034,-0.930796,0.365453,-0.007938,-0.390966,0.417613,0.0022621460310431,-1.559077,-0.393119,0.719457,-0.698647,0.598119,1.901943,-0.923655,0.383072,-0.010825,-0.421941,0.487107,-0.0108881460310431,-1.555693,-0.412154,0.710999,-0.842477,0.704168,1.914248,-0.916156,0.400584,-0.013838,-0.440015,0.514226,-0.0361491460310431,-1.551628,-0.431195,0.701508,-0.919807,0.837566,1.896085,-0.9083,0.417956,-0.017412,-0.438364,0.466092,-0.0623911460310431,-1.538846,-0.466832,0.681979,-0.940396,1.228728,1.684375,-0.892543,0.45006,-0.028527,-0.410634,0.296034,-0.0983191460310431,-1.546163,-0.44957,0.691783,-0.926015,1.017251,1.807932,-0.900361,0.434578,-0.022183,-0.434478,0.393104,-0.0937841460310431,-1.530063,-0.48303,0.671922,-0.964639,1.384837,1.569442,-0.884857,0.464465,-0.036063,-0.354446,0.18205,-0.0955291460310431,-1.520114,-0.497766,0.661928,-0.951222,1.509566,1.398341,-0.877523,0.477464,-0.044513,-0.302439,0.077224,-0.0852321460310431,-1.509247,-0.510808,0.651964,-0.954953,1.601246,1.220785,-0.870698,0.488882,-0.053658,-0.232406,-0.004263,-0.042671460310431,-1.497921,-0.52243,0.641948,-0.95266,1.652595,1.076503,-0.864309,0.498988,-0.063099,-0.151148,-0.075999,-0.0178341460310431,-1.486354,-0.532934,0.632131,-0.930433,1.666753,0.962405,-0.858251,0.508063,-0.072646,-0.073084,-0.125937,0.0146931460310431,-1.47503,-0.542671,0.622462,-0.921469,1.628928,0.88572,-0.852409,0.516425,-0.081883,0.00904,-0.163657,0.0378151460310431,-1.464497,-0.552059,0.612873,-0.915127,1.540192,0.851876,-0.846641,0.524441,-0.090338,0.078712,-0.196087,0.0540991460310431,-1.455138,-0.561378,0.60363,-0.881431,1.397177,0.847264,-0.840867,0.532353,-0.09769,0.138108,-0.231984,0.0688661460310431,-1.447224,-0.570819,0.594983,-0.833039,1.221178,0.861032,-0.835042,0.540322,-0.103717,0.179357,-0.250542,0.0771661460310431,-1.44081,-0.580437,0.586826,-0.799591,1.053777,0.878915,-0.829168,0.548389,-0.108392,0.201071,-0.26186,0.0907531460310431,-1.435816,-0.590263,0.578887,-0.792754,0.914194,0.899684,-0.823237,0.55658,-0.111801,0.214564,-0.271988,0.1045681460310431,-1.432034,-0.600415,0.5707,-0.830643,0.82705,0.930582,-0.81717,0.564985,-0.114126,0.223817,-0.28317,0.1134691460310431,-1.429256,-0.611162,0.561656,-0.918656,0.796693,0.982226,-0.810792,0.573819,-0.115533,0.227098,-0.290555,0.117761460310431,-1.425318,-0.635034,0.540129,-1.108339,0.869521,1.119158,-0.796547,0.593205,-0.116705,0.210412,-0.299229,0.093421460310431,-1.427149,-0.622678,0.551416,-1.025803,0.817659,1.047428,-0.803953,0.583213,-0.116286,0.22534,-0.295935,0.1122891460310431,-1.423318,-0.648302,0.528344,-1.142943,0.925617,1.20731,-0.788458,0.603834,-0.117131,0.182958,-0.292814,0.0770611460310431,-1.419015,-0.677334,0.50642,-1.008872,0.849521,1.377414,-0.770287,0.626718,-0.117822,0.112969,-0.282907,0.0321741460310431,-1.421191,-0.662475,0.516812,-1.110551,0.916502,1.299446,-0.779665,0.615071,-0.11752,0.154802,-0.286793,0.0593531460310431,-1.41701,-0.692702,0.497735,-0.868902,0.719449,1.444162,-0.760442,0.638619,-0.117876,0.060307,-0.279808,0.0142541460310431,-1.413927,-0.724323,0.486889,-0.533525,0.384341,1.551674,-0.739752,0.662629,-0.117006,-0.052881,-0.280152,0.0016951460310431,-1.415328,-0.708389,0.491189,-0.699083,0.551892,1.49847,-0.750252,0.650611,-0.117589,0.0037,-0.277488,0.0013481460310431,-1.41291,-0.74062,0.484662,-0.385099,0.210466,1.609018,-0.72887,0.674746,-0.116045,-0.109112,-0.291293,-0.0041491460310431,-1.41208,-0.756896,0.484565,-0.227734,0.053335,1.619409,-0.717833,0.686668,-0.114898,-0.174577,-0.302193,-0.0107881460310431,-1.411132,-0.772741,0.486503,-0.077433,-0.066694,1.591186,-0.706893,0.698101,-0.113834,-0.237733,-0.3139,-0.0163541460310431,-1.409531,-0.78783,0.490386,0.068002,-0.122941,1.52856,-0.696232,0.708825,-0.113262,-0.297786,-0.330071,-0.0182231460310431,-1.402038,-0.814707,0.503623,0.323718,-0.065188,1.327744,-0.676335,0.727525,-0.115233,-0.403636,-0.368547,0.0117481460310431,-1.406617,-0.801909,0.496176,0.2074,-0.118522,1.444343,-0.685986,0.718685,-0.113648,-0.354603,-0.346721,-0.0061191460310431,-1.39592,-0.826007,0.512028,0.386964,0.020122,1.184959,-0.667479,0.735231,-0.117931,-0.444169,-0.381166,0.0386461460310431,-1.388732,-0.835746,0.520543,0.393749,0.112979,1.029914,-0.659541,0.741797,-0.121424,-0.488607,-0.375174,0.0629371460310431,-1.381088,-0.843908,0.528654,0.381236,0.172806,0.870529,-0.652625,0.747246,-0.125316,-0.532861,-0.352639,0.076931460310431,-1.373603,-0.85053,0.536378,0.378049,0.163329,0.716774,-0.646802,0.75163,-0.129224,-0.577197,-0.315275,0.0810831460310431,-1.366937,-0.855715,0.544026,0.400031,0.061117,0.580603,-0.642101,0.75504,-0.132743,-0.620579,-0.266865,0.0843571460310431,-1.361468,-0.859557,0.55196,0.444165,-0.094407,0.455465,-0.638524,0.757553,-0.135648,-0.667705,-0.218796,0.085021460310431,-1.35731,-0.862005,0.560121,0.479878,-0.238244,0.31954,-0.63614,0.759149,-0.137909,-0.691116,-0.201059,0.08671460310431,-1.354384,-0.862982,0.567845,0.466895,-0.308496,0.162681,-0.635009,0.759785,-0.13961,-0.695054,-0.225315,0.0884021460310431,-1.352792,-0.862297,0.573802,0.363801,-0.285981,-0.03582,-0.635294,0.759339,-0.140734,-0.678305,-0.278336,0.0901051460310431,-1.353297,-0.859813,0.576296,0.15754,-0.228207,-0.269496,-0.637204,0.757721,-0.140819,-0.675326,-0.304413,0.0906481460310431,-1.356626,-0.855511,0.574522,-0.077607,-0.193825,-0.505489,-0.640849,0.754906,-0.139388,-0.72556,-0.223687,0.0742031460310431,-1.362064,-0.849716,0.569683,-0.215081,-0.177442,-0.67651,-0.645867,0.751093,-0.136806,-0.866646,0.064672,-0.0277911460310431,-1.367437,-0.842812,0.564604,-0.166268,-0.149369,-0.770131,-0.651655,0.746517,-0.134378,-0.847277,0.092335,-0.075661460310431,-1.370622,-0.834975,0.561812,0.029669,-0.099087,-0.8273,-0.657794,0.74128,-0.133461,-0.76579,0.014931,-0.1041791460310431,-1.371003,-0.825791,0.562197,0.267556,-0.058823,-0.933189,-0.664489,0.735084,-0.134556,-0.642304,-0.12458,-0.1019861460310431,-1.369745,-0.814698,0.564853,0.439543,-0.078511,-1.10674,-0.672268,0.727518,-0.137011,-0.531711,-0.235972,-0.0788091460310431,-1.368765,-0.801365,0.568399,0.530377,-0.197418,-1.324476,-0.681577,0.718306,-0.139604,-0.453113,-0.262526,-0.0600111460310431,-1.369622,-0.78579,0.571952,0.567554,-0.394008,-1.540309,-0.692575,0.707384,-0.141239,-0.409766,-0.211901,-0.0495111460310431,-1.372974,-0.76848,0.575074,0.562631,-0.616815,-1.704111,-0.704946,0.695043,-0.141302,-0.399256,-0.095311,-0.0529271460310431,-1.387695,-0.730722,0.580604,0.570701,-1.127676,-1.884011,-0.732244,0.667408,-0.135593,-0.402659,0.196789,-0.1049161460310431,-1.37907,-0.749985,0.57779,0.55724,-0.867027,-1.816582,-0.718292,0.681628,-0.139428,-0.395813,0.04527,-0.0767741460310431,-1.398931,-0.711309,0.583522,0.561241,-1.391036,-1.883296,-0.746348,0.652826,-0.129549,-0.405172,0.33312,-0.1397531460310431,-1.41201,-0.692471,0.586799,0.565415,-1.570801,-1.809041,-0.759988,0.638441,-0.1217,-0.396506,0.434191,-0.1724891460310431,-1.425481,-0.674905,0.591041,0.61108,-1.63719,-1.661092,-0.772538,0.624823,-0.113059,-0.369873,0.488794,-0.2094971460310431,-1.437838,-0.65898,0.596792,0.698555,-1.58727,-1.482166,-0.783639,0.61231,-0.10481,-0.333273,0.483133,-0.240711460310431,-1.448334,-0.644604,0.604317,0.81305,-1.494919,-1.326627,-0.793351,0.600882,-0.097644,-0.29132,0.422418,-0.2655911460310431,-1.456996,-0.631206,0.613487,0.922679,-1.400831,-1.237333,-0.802094,0.590119,-0.091675,-0.262145,0.341491,-0.2738191460310431,-1.464195,-0.618074,0.623824,1.006157,-1.315686,-1.226185,-0.810369,0.579467,-0.086715,-0.250712,0.255906,-0.2716531460310431,-1.470284,-0.604406,0.634994,1.077395,-1.242762,-1.299459,-0.818687,0.568273,-0.082567,-0.227074,0.180277,-0.2597181460310431,-1.475464,-0.589499,0.646881,1.153325,-1.181979,-1.43672,-0.827445,0.555945,-0.079122,-0.195108,0.122033,-0.2381241460310431,-1.479994,-0.573048,0.659459,1.228245,-1.144772,-1.593138,-0.836791,0.542196,-0.076192,-0.151613,0.081263,-0.2064311460310431,-1.484199,-0.55514,0.672667,1.297608,-1.137308,-1.733498,-0.846642,0.527063,-0.0735,-0.096992,0.055487,-0.1770031460310431,-1.488497,-0.536016,0.686411,1.359224,-1.159534,-1.850346,-0.85684,0.510715,-0.070677,-0.04146,0.04115,-0.1454941460310431,-1.493088,-0.515835,0.700705,1.419632,-1.197678,-1.95541,-0.867256,0.493261,-0.067529,0.006569,0.034449,-0.1221531460310431,-1.498274,-0.494697,0.715317,1.452182,-1.250629,-2.053199,-0.877799,0.474765,-0.063772,0.056129,0.029492,-0.0983681460310431,-1.504331,-0.472661,0.729825,1.440973,-1.304532,-2.152434,-0.888394,0.455257,-0.059135,0.100507,0.028554,-0.071421460310431,-1.511339,-0.449736,0.74375,1.38394,-1.339122,-2.253195,-0.89897,0.434728,-0.053514,0.141234,0.040797,-0.0447371460310431,-1.51922,-0.426012,0.75666,1.282124,-1.346891,-2.348022,-0.90941,0.413243,-0.046945,0.174394,0.054851,-0.0336971460310431,-1.527779,-0.401519,0.768188,1.143041,-1.323621,-2.441132,-0.919617,0.390817,-0.039584,0.209412,0.078421,-0.0299651460310431,-1.536794,-0.376319,0.778137,0.985818,-1.276775,-2.523795,-0.929486,0.367499,-0.031617,0.237882,0.116326,-0.042251460310431,-1.545957,-0.350545,0.786593,0.836017,-1.210655,-2.590434,-0.938896,0.343409,-0.023326,0.267372,0.157262,-0.0603991460310431,-1.55496,-0.324365,0.793794,0.70747,-1.1274,-2.635586,-0.947735,0.318707,-0.01501,0.297496,0.200641,-0.0802661460310431,-1.563653,-0.298003,0.799893,0.586213,-1.045079,-2.656112,-0.9559,0.293612,-0.006828,0.326323,0.247663,-0.0975121460310431,-1.571964,-0.271599,0.804977,0.472343,-0.960565,-2.663768,-0.963343,0.268272,0.001125,0.364695,0.293572,-0.1116751460310431,-1.579572,-0.245264,0.809146,0.366988,-0.842899,-2.65223,-0.970036,0.242812,0.008513,0.404911,0.332856,-0.1095721460310431,-1.58617,-0.219181,0.812381,0.258455,-0.700645,-2.632253,-0.975961,0.21743,0.015005,0.437112,0.391442,-0.1088621460310431,-1.590905,-0.193459,0.814737,0.159572,-0.468613,-2.575092,-0.981147,0.192255,0.019732,0.497611,0.423071,-0.0775021460310431,-1.594637,-0.169248,0.815653,-0.004743,-0.380667,-2.396342,-0.985432,0.168441,0.023497,0.533741,0.441315,-0.1113581460310431,-1.598056,-0.146601,0.815531,-0.08249,-0.330486,-2.249823,-0.988906,0.146076,0.026964,0.562774,0.471462,-0.1059281460310431,-1.605047,-0.106061,0.814679,-0.112836,-0.363468,-1.908308,-0.993798,0.105862,0.034051,0.597695,0.471408,-0.1373071460310431,-1.601417,-0.125445,0.815159,-0.105056,-0.342211,-2.087687,-0.991677,0.125116,0.030375,0.589532,0.467505,-0.131221460310431,-1.608782,-0.088269,0.814228,-0.109731,-0.377449,-1.754483,-0.995388,0.088154,0.037829,0.607022,0.482494,-0.135791460310431,-1.612681,-0.071855,0.813775,-0.112903,-0.392593,-1.618861,-0.996545,0.071793,0.041764,0.616036,0.505767,-0.1354681460310431,-1.616556,-0.056838,0.813188,-0.132088,-0.38416,-1.471704,-0.99734,0.056808,0.04567,0.625254,0.531098,-0.128251460310431,-1.620286,-0.043491,0.812121,-0.18883,-0.365828,-1.292873,-0.997831,0.043477,0.049423,0.630705,0.565333,-0.1224511460310432,-1.623786,-0.032058,0.810127,-0.285218,-0.33763,-1.088791,-0.998083,0.032052,0.052937,0.621435,0.611289,-0.113241460310432,-1.626897,-0.022769,0.80682,-0.418038,-0.292099,-0.857319,-0.998168,0.022767,0.056057,0.60115,0.663375,-0.1167111460310432,-1.629368,-0.015875,0.801986,-0.56376,-0.219715,-0.600414,-0.998159,0.015875,0.058531,0.567388,0.727961,-0.1266161460310432,-1.630913,-0.011674,0.795605,-0.701092,-0.121555,-0.310414,-0.998125,0.011674,0.060077,0.539141,0.779021,-0.1495241460310432,-1.631356,-0.010408,0.787925,-0.803267,-0.007391,-0.003071,-0.998113,0.010407,0.060519,0.516652,0.793166,-0.1837491460310432,-1.630682,-0.012176,0.779513,-0.841403,0.105531,0.304833,-0.998133,0.012176,0.059846,0.506083,0.767808,-0.2230231460310432,-1.629014,-0.016842,0.77118,-0.791879,0.203124,0.587923,-0.998164,0.016841,0.058176,0.493266,0.715169,-0.2567541460310432,-1.626551,-0.024087,0.763935,-0.6471,0.280984,0.827059,-0.998156,0.024084,0.05571,0.469699,0.6578,-0.2748411460310432,-1.623455,-0.033371,0.75832,-0.473132,0.342402,1.007772,-0.998058,0.033365,0.052605,0.405727,0.669867,-0.2584161460310432,-1.619843,-0.044349,0.753557,-0.423979,0.395547,1.173541,-0.997815,0.044335,0.048978,0.327359,0.772133,-0.2090581460310432,-1.615728,-0.057168,0.747878,-0.546871,0.464305,1.37193,-0.997359,0.057136,0.044843,0.257552,0.890373,-0.1594521460310432,-1.610747,-0.072598,0.740661,-0.695927,0.580664,1.668179,-0.99657,0.072534,0.039834,0.225254,0.964652,-0.1317081460310432,-1.604849,-0.09186,0.732059,-0.820254,0.6913,2.084249,-0.995207,0.09173,0.033903,0.204694,0.980245,-0.1497931460310432,-1.598518,-0.115653,0.722901,-0.84045,0.741095,2.537716,-0.992938,0.115395,0.027533,0.198932,0.902931,-0.1803191460310432,-1.592539,-0.143453,0.714691,-0.710944,0.691852,2.908436,-0.989494,0.142962,0.021518,0.178001,0.746931,-0.2187831460310432,-1.587276,-0.17383,0.708634,-0.482156,0.606112,3.113564,-0.984796,0.172956,0.01623,0.121637,0.572344,-0.2463631460310432,-1.582599,-0.204807,0.705372,-0.211416,0.504086,3.119438,-0.979032,0.203378,0.011555,0.065778,0.40441,-0.2497911460310432,-1.578521,-0.23474,0.704726,0.01877,0.403389,2.977605,-0.972546,0.23259,0.007513,-0.007007,0.304886,-0.2406061460310432,-1.574482,-0.262722,0.705959,0.168582,0.372859,2.765455,-0.96568,0.25971,0.003559,-0.07323,0.248454,-0.2081641460310432,-1.569969,-0.288309,0.708243,0.238795,0.402051,2.518261,-0.958726,0.284332,-0.000793,-0.137817,0.243043,-0.1669471460310432,-1.564888,-0.311504,0.710843,0.238509,0.445384,2.28429,-0.951857,0.306491,-0.005624,-0.190004,0.28024,-0.1214361460310432,-1.559582,-0.332684,0.713148,0.186573,0.463546,2.094791,-0.94511,0.326581,-0.010599,-0.242894,0.360369,-0.0859121460310432,-1.554503,-0.352496,0.714807,0.109469,0.451292,1.975635,-0.938389,0.345242,-0.015291,-0.292141,0.4594,-0.0612321460310432,-1.549851,-0.371712,0.715611,0.01687,0.440624,1.933217,-0.931503,0.363211,-0.019514,-0.317674,0.509042,-0.0549791460310432,-1.545211,-0.390741,0.715489,-0.081024,0.488758,1.912998,-0.924324,0.380874,-0.023655,-0.331123,0.516206,-0.0456661460310432,-1.540091,-0.409447,0.714186,-0.208414,0.599742,1.868841,-0.916909,0.398102,-0.028163,-0.340888,0.461899,-0.0425621460310432,-1.533884,-0.427263,0.711415,-0.35315,0.793509,1.75381,-0.909483,0.414381,-0.033586,-0.344148,0.385851,-0.0331411460310432,-1.515114,-0.458204,0.69967,-0.783667,1.485615,1.394534,-0.895458,0.442338,-0.049913,-0.288441,0.193068,0.0041521460310432,-1.525763,-0.443579,0.706795,-0.53871,1.100069,1.581491,-0.902306,0.429174,-0.040661,-0.330833,0.291513,-0.0131571460310432,-1.502247,-0.471421,0.689667,-1.047144,1.83089,1.23957,-0.888831,0.454153,-0.061025,-0.211404,0.101191,0.0249071460310432,-1.488055,-0.483785,0.677217,-1.250518,2.060054,1.131394,-0.882212,0.465133,-0.073163,-0.131383,0.022797,0.0285461460310432,-1.473101,-0.495274,0.66348,-1.338924,2.184355,1.017065,-0.875643,0.475273,-0.085819,-0.062208,-0.028968,0.0393871460310432,-1.458087,-0.506138,0.64931,-1.366091,2.194622,0.940987,-0.869074,0.484803,-0.098369,0.016519,-0.082322,0.0516321460310432,-1.443825,-0.516689,0.635254,-1.346905,2.104751,0.90192,-0.86246,0.494004,-0.1101,0.083667,-0.117341,0.0623861460310432,-1.430865,-0.527214,0.621856,-1.285561,1.931803,0.89764,-0.855765,0.503128,-0.120536,0.141989,-0.151916,0.0716161460310432,-1.419704,-0.537965,0.609428,-1.203288,1.703539,0.924675,-0.84897,0.51239,-0.129258,0.178422,-0.177688,0.0750891460310432,-1.402573,-0.560518,0.588457,-0.995157,1.259882,1.010051,-0.835024,0.531625,-0.14181,0.204012,-0.213968,0.0932871460310432,-1.410374,-0.549073,0.598275,-1.097692,1.464655,0.969029,-0.842056,0.521897,-0.136255,0.198013,-0.198731,0.083431460310432,-1.395932,-0.572185,0.579624,-0.928607,1.115909,1.037761,-0.827899,0.54147,-0.146264,0.197208,-0.223889,0.1013271460310432,-1.390206,-0.584112,0.57117,-0.915248,1.023267,1.064851,-0.820636,0.551459,-0.149831,0.192233,-0.231162,0.1071831460310432,-1.385237,-0.596406,0.562514,-0.950853,0.978771,1.09564,-0.813157,0.561672,-0.152645,0.179474,-0.235348,0.1103781460310432,-1.380844,-0.609223,0.553199,-1.02055,0.977095,1.137747,-0.805342,0.572231,-0.154844,0.158506,-0.2308,0.1145451460310432,-1.376843,-0.622707,0.543158,-1.086003,0.992542,1.191585,-0.797072,0.583236,-0.156563,0.127821,-0.226043,0.1134111460310432,-1.373052,-0.636857,0.532693,-1.121584,1.00792,1.247818,-0.788301,0.594672,-0.157946,0.091661,-0.218436,0.1088591460310432,-1.369325,-0.651548,0.522098,-1.133628,1.018909,1.294661,-0.779063,0.606418,-0.159118,0.049174,-0.217243,0.1004941460310432,-1.365793,-0.666624,0.511565,-1.125388,0.999891,1.326823,-0.769457,0.618336,-0.159989,0.009722,-0.223637,0.0892951460310432,-1.362619,-0.681977,0.501455,-1.086361,0.937082,1.361522,-0.759566,0.630329,-0.160449,-0.028291,-0.24596,0.0798981460310432,-1.359994,-0.697454,0.4922,-1.006807,0.831409,1.380687,-0.749512,0.642269,-0.160381,-0.072494,-0.2635,0.0659911460310432,-1.357878,-0.71278,0.483966,-0.923869,0.72664,1.375322,-0.739463,0.65394,-0.159868,-0.116418,-0.286203,0.0649131460310432,-1.356294,-0.727792,0.476377,-0.871669,0.646369,1.351462,-0.729534,0.665223,-0.158932,-0.161671,-0.302109,0.0605431460310432,-1.355127,-0.742436,0.469197,-0.829999,0.591672,1.319958,-0.719754,0.676085,-0.157681,-0.20795,-0.310042,0.0508851460310432,-1.354007,-0.756583,0.462476,-0.775304,0.572049,1.27565,-0.710165,0.68644,-0.156414,-0.257929,-0.31292,0.0414241460310432,-1.352401,-0.77003,0.456593,-0.688405,0.571433,1.215548,-0.700837,0.696157,-0.15554,-0.29486,-0.320318,0.0349191460310432,-1.350192,-0.782566,0.451841,-0.580094,0.553589,1.138601,-0.691922,0.705101,-0.155166,-0.322772,-0.334297,0.0266871460310432,-1.347376,-0.79405,0.448461,-0.45901,0.514351,1.056492,-0.683541,0.713198,-0.15531,-0.348152,-0.349993,0.0300961460310432,-1.344222,-0.804499,0.446492,-0.342342,0.439956,0.977654,-0.675748,0.720483,-0.155782,-0.368563,-0.348734,0.0356491460310432,-1.341033,-0.81402,0.445807,-0.237544,0.346452,0.907312,-0.668538,0.727053,-0.156367,-0.39799,-0.337069,0.0547281460310432,-1.338116,-0.822674,0.446371,-0.137178,0.217804,0.842377,-0.661932,0.732967,-0.15686,-0.435038,-0.311214,0.0621021460310432,-1.335691,-0.83047,0.448254,-0.030497,0.065686,0.778635,-0.655972,0.738249,-0.157128,-0.479831,-0.280714,0.0654991460310432,-1.333892,-0.837432,0.451473,0.072888,-0.102384,0.720252,-0.650677,0.742927,-0.157098,-0.53043,-0.241798,0.0691611460310432,-1.332815,-0.843633,0.455898,0.16347,-0.261869,0.664935,-0.646017,0.747063,-0.15671,-0.579599,-0.205971,0.0694451460310432,-1.332377,-0.849121,0.46119,0.225402,-0.381848,0.604976,-0.641955,0.7507,-0.156022,-0.626981,-0.194487,0.0683761460310432,-1.332488,-0.853738,0.466636,0.242988,-0.429392,0.51238,-0.638598,0.753742,-0.155131,-0.648389,-0.222873,0.0634111460310432,-1.332909,-0.857212,0.471332,0.206778,-0.38215,0.376317,-0.636114,0.756021,-0.154244,-0.659891,-0.279214,0.060541460310432,-1.333931,-0.859171,0.474137,0.10385,-0.296676,0.185101,-0.634831,0.757302,-0.153246,-0.682125,-0.304207,0.0452291460310432,-1.336412,-0.859473,0.474182,-0.041785,-0.24316,-0.020272,-0.634987,0.757499,-0.151617,-0.750877,-0.22959,0.0171261460310432,-1.340564,-0.858337,0.471918,-0.136711,-0.253505,-0.183367,-0.636448,0.756756,-0.149176,-0.864315,-0.065838,-0.0187011460310432,-1.34537,-0.856027,0.469347,-0.089152,-0.301205,-0.287447,-0.63886,0.755245,-0.146506,-0.934611,0.065403,-0.0614561460310432,-1.348787,-0.85266,0.469151,0.123603,-0.33631,-0.349549,-0.641833,0.753034,-0.144881,-0.956189,0.087527,-0.102541460310432,-1.348836,-0.840369,0.478446,0.581892,-0.350421,-0.697865,-0.650821,0.744889,-0.146876,-0.795316,-0.185945,-0.1059931460310432,-1.349686,-0.847716,0.47259,0.399847,-0.355986,-0.474142,-0.645588,0.749771,-0.145119,-0.89526,-0.022964,-0.115441460310432,-1.347587,-0.830098,0.484414,0.625879,-0.309787,-1.002981,-0.658063,0.737997,-0.149375,-0.697451,-0.312857,-0.0743341460310432,-1.347028,-0.816499,0.489067,0.610402,-0.281012,-1.355564,-0.667704,0.728753,-0.151956,-0.621435,-0.358132,-0.0490791460310432,-1.347355,-0.799772,0.492538,0.612585,-0.29466,-1.663015,-0.679546,0.717197,-0.154417,-0.557438,-0.316791,-0.0396291460310432,-1.348776,-0.780582,0.495633,0.654456,-0.396437,-1.891908,-0.693064,0.703693,-0.156454,-0.504308,-0.208134,-0.0385081460310432,-1.35188,-0.759577,0.498981,0.715703,-0.608723,-2.048758,-0.707821,0.688615,-0.157477,-0.481724,-0.054322,-0.043741460310432,-1.357536,-0.737581,0.502901,0.772751,-0.919609,-2.115654,-0.723331,0.6725,-0.15664,-0.471188,0.117402,-0.0591351460310432,-1.365793,-0.715578,0.507555,0.812059,-1.213834,-2.083456,-0.738911,0.656053,-0.153638,-0.465343,0.282393,-0.0784331460310432,-1.387189,-0.67523,0.518697,0.817386,-1.525534,-1.789903,-0.767443,0.625077,-0.142513,-0.402204,0.462859,-0.1323281460310432,-1.375971,-0.694588,0.512842,0.818983,-1.416748,-1.957855,-0.753782,0.640069,-0.148743,-0.440721,0.405479,-0.0994261460310432,-1.398363,-0.657375,0.525311,0.841928,-1.536442,-1.646577,-0.77986,0.611041,-0.135823,-0.362627,0.464719,-0.1623651460310432,-1.408752,-0.64051,0.532567,0.861845,-1.467733,-1.563327,-0.791287,0.597605,-0.129358,-0.328677,0.422568,-0.1908791460310432,-1.417884,-0.62407,0.540099,0.865328,-1.334291,-1.538075,-0.802038,0.584343,-0.123607,-0.286112,0.357704,-0.2120721460310432,-1.425483,-0.60762,0.547786,0.874546,-1.173398,-1.554498,-0.812356,0.570915,-0.118884,-0.241446,0.274986,-0.2265441460310432,-1.43155,-0.590669,0.555618,0.894755,-1.021366,-1.618847,-0.822529,0.556917,-0.11528,-0.195202,0.202086,-0.2362521460310432,-1.43628,-0.57273,0.563921,0.959959,-0.913448,-1.726447,-0.832833,0.541928,-0.11271,-0.1464,0.142718,-0.2362431460310432,-1.439968,-0.553538,0.573229,1.073049,-0.86543,-1.84199,-0.843401,0.5257,-0.110974,-0.097517,0.107235,-0.2231171460310432,-1.443171,-0.533223,0.583706,1.188993,-0.874876,-1.937048,-0.854169,0.508312,-0.10961,-0.043231,0.085362,-0.1942081460310432,-1.446565,-0.512056,0.59511,1.276851,-0.933158,-2.009779,-0.86502,0.489971,-0.108019,0.018905,0.070942,-0.1650981460310432,-1.450609,-0.490198,0.607169,1.343221,-1.01372,-2.074089,-0.875875,0.4708,-0.105779,0.06603,0.0655,-0.1395521460310432,-1.455632,-0.467725,0.619632,1.382827,-1.110184,-2.135381,-0.886684,0.450857,-0.102568,0.11143,0.063273,-0.1191881460310432,-1.461706,-0.444665,0.632168,1.386243,-1.186315,-2.201321,-0.897388,0.430156,-0.098287,0.149784,0.065755,-0.107281460310432,-1.468588,-0.42104,0.644395,1.354607,-1.215438,-2.268777,-0.907902,0.40871,-0.09312,0.177997,0.077557,-0.097281460310432,-1.475905,-0.396887,0.655978,1.287923,-1.194346,-2.336691,-0.91812,0.386549,-0.087384,0.2041,0.095812,-0.0892831460310432,-1.483276,-0.372222,0.666667,1.19896,-1.12946,-2.402796,-0.927956,0.363686,-0.081423,0.229333,0.120536,-0.0911541460310432,-1.490383,-0.347082,0.676364,1.100457,-1.036796,-2.464798,-0.937331,0.340155,-0.075536,0.250975,0.155969,-0.0975141460310432,-1.496984,-0.321493,0.685077,1.003054,-0.925981,-2.522574,-0.946181,0.315983,-0.069967,0.272979,0.193233,-0.10561460310432,-1.502981,-0.295597,0.692906,0.912976,-0.8172,-2.56106,-0.954429,0.291311,-0.064824,0.295509,0.236033,-0.1139941460310432,-1.508256,-0.26953,0.699929,0.828156,-0.699809,-2.584578,-0.962012,0.266278,-0.060243,0.318228,0.282291,-0.1206651460310432,-1.512688,-0.24358,0.706104,0.735617,-0.573627,-2.569751,-0.968843,0.241179,-0.056361,0.353181,0.327425,-0.1196791460310433,-1.516369,-0.218175,0.711355,0.63204,-0.467423,-2.514386,-0.974849,0.216448,-0.053111,0.385813,0.361326,-0.1175591460310433,-1.519392,-0.193486,0.71572,0.540074,-0.371835,-2.446074,-0.980044,0.192281,-0.050423,0.416582,0.394968,-0.1197271460310433,-1.521823,-0.169454,0.719335,0.459905,-0.291301,-2.392562,-0.984495,0.168645,-0.048253,0.441267,0.424556,-0.1153981460310433,-1.523285,-0.145895,0.722229,0.382073,-0.159609,-2.342387,-0.98826,0.145378,-0.046989,0.477426,0.462685,-0.095651460310433,-1.524107,-0.123519,0.724115,0.262824,-0.099797,-2.209073,-0.9913,0.123205,-0.046317,0.508481,0.481226,-0.08411460310433,-1.526008,-0.082923,0.725658,0.141267,-0.122337,-1.944196,-0.995564,0.082828,-0.04462,0.562215,0.522198,-0.1022771460310433,-1.524937,-0.102583,0.725069,0.175387,-0.095509,-2.073176,-0.993697,0.102404,-0.045602,0.534041,0.503111,-0.0971291460310433,-1.527377,-0.064831,0.726009,0.106898,-0.144673,-1.778927,-0.996959,0.064786,-0.043315,0.585612,0.527942,-0.1163681460310433,-1.529528,-0.033712,0.725103,-0.041479,-0.068624,-1.448381,-0.998581,0.033705,-0.041233,0.61174,0.561738,-0.1180071460310433,-1.528654,-0.048445,0.72591,0.042772,-0.121049,-1.609786,-0.99794,0.048426,-0.042081,0.600281,0.542761,-0.1175571460310433,-1.529484,-0.020595,0.723349,-0.152214,0.039316,-1.288444,-0.998935,0.020594,-0.041292,0.614932,0.587606,-0.1058031460310433,-1.528102,-0.009245,0.720298,-0.297122,0.180519,-1.110754,-0.999046,0.009245,-0.04268,0.605247,0.625383,-0.0971361460310433,-1.525193,0.000128,0.715733,-0.459194,0.334678,-0.915101,-0.99896,-0.000128,-0.045587,0.593214,0.670279,-0.0922911460310433,-1.520807,0.007354,0.709658,-0.61612,0.469735,-0.702262,-0.998724,-0.007354,-0.049967,0.576193,0.720855,-0.0821591460310433,-1.508496,0.014581,0.693544,-0.886849,0.67397,-0.219416,-0.997954,-0.014581,-0.062254,0.538222,0.806527,-0.0784931460310433,-1.515147,0.012243,0.702193,-0.761434,0.594177,-0.476476,-0.998377,-0.012242,-0.055616,0.554636,0.75707,-0.0861381460310433,-1.501386,0.014116,0.684331,-0.937811,0.711005,0.054439,-0.997493,-0.014116,-0.069347,0.533259,0.792451,-0.1026041460310433,-1.494133,0.010907,0.675447,-0.904519,0.72113,0.325907,-0.997003,-0.010907,-0.076583,0.539362,0.77406,-0.1137391460310433,-1.486989,0.005035,0.6677,-0.793351,0.709688,0.593848,-0.996478,-0.005035,-0.083708,0.534518,0.735122,-0.13081460310433,-1.480235,-0.003128,0.661744,-0.628635,0.66693,0.822845,-0.995897,0.003128,-0.090437,0.506533,0.723785,-0.1321271460310433,-1.474138,-0.013317,0.657231,-0.53646,0.600805,1.034196,-0.995244,0.013317,-0.0965,0.425282,0.796345,-0.0973941460310433,-1.468795,-0.025925,0.652777,-0.591937,0.530039,1.290186,-0.994468,0.025922,-0.10179,0.327842,0.937899,-0.0354011460310433,-1.463998,-0.041676,0.6478,-0.690481,0.492865,1.612967,-0.993439,0.041664,-0.106503,0.286072,1.011162,0.0145391460310433,-1.459503,-0.061491,0.642223,-0.80462,0.481964,2.038036,-0.991935,0.061452,-0.110854,0.24343,1.050715,0.0430591460310433,-1.455326,-0.085888,0.636241,-0.896569,0.455153,2.486837,-0.989679,0.085783,-0.114789,0.228479,0.986696,0.0424781460310433,-1.452023,-0.114238,0.630546,-0.895308,0.365754,2.858695,-0.986483,0.11399,-0.117722,0.229158,0.855752,0.0116431460310433,-1.449605,-0.145242,0.62593,-0.80445,0.285943,3.097837,-0.982213,0.144732,-0.119622,0.190114,0.683454,-0.039131460310433,-1.447744,-0.177,0.623096,-0.619313,0.212143,3.145589,-0.976933,0.176077,-0.120824,0.12653,0.520121,-0.0759381460310433,-1.446375,-0.207796,0.622356,-0.402113,0.134093,3.03881,-0.970924,0.206303,-0.121431,0.057777,0.399165,-0.105971460310433,-1.445013,-0.236571,0.623461,-0.209679,0.108858,2.839829,-0.964467,0.23437,-0.121958,-0.023219,0.337941,-0.105521460310433,-1.443247,-0.262947,0.625856,-0.074542,0.124128,2.612463,-0.957784,0.259928,-0.122831,-0.091609,0.300329,-0.0793481460310433,-1.441046,-0.287123,0.628826,-0.017472,0.144018,2.406826,-0.951001,0.283194,-0.12409,-0.161212,0.320413,-0.0423531460310433,-1.438783,-0.309652,0.63162,-0.040918,0.145272,2.254997,-0.944152,0.304727,-0.12537,-0.223893,0.392066,-0.0048951460310433,-1.436674,-0.331441,0.633434,-0.152483,0.159043,2.189917,-0.937082,0.325406,-0.126443,-0.283346,0.493747,0.0324181460310433,-1.434652,-0.353342,0.633576,-0.331669,0.216104,2.196723,-0.92954,0.346036,-0.127339,-0.322398,0.56821,0.0458121460310433,-1.432441,-0.37595,0.631739,-0.532391,0.317236,2.250189,-0.921271,0.367156,-0.128282,-0.341989,0.609406,0.0537891460310433,-1.429745,-0.399271,0.628081,-0.705147,0.443777,2.286737,-0.912195,0.388746,-0.129526,-0.347464,0.565477,0.0386911460310433,-1.426239,-0.422547,0.623186,-0.800404,0.590941,2.244886,-0.902534,0.410085,-0.131384,-0.345375,0.484904,0.0008611460310433,-1.421539,-0.445317,0.617557,-0.861291,0.750661,2.179806,-0.89244,0.430744,-0.134201,-0.3266,0.368252,-0.0283051460310433,-1.415703,-0.467229,0.611441,-0.881302,0.900373,2.067065,-0.882103,0.450414,-0.137916,-0.290107,0.239466,-0.0549241460310433,-1.408327,-0.487469,0.605544,-0.829288,1.051589,1.885544,-0.871886,0.468391,-0.142915,-0.255724,0.134773,-0.053421460310433,-1.399727,-0.505928,0.600211,-0.755157,1.144175,1.717206,-0.861957,0.48462,-0.148909,-0.199261,0.03096,-0.044771460310433,-1.390105,-0.522879,0.595804,-0.652588,1.200646,1.584461,-0.85228,0.499376,-0.155697,-0.147933,-0.03937,-0.0245551460310433,-1.379755,-0.538615,0.59255,-0.544025,1.208255,1.485017,-0.842803,0.512948,-0.162998,-0.093355,-0.091652,0.0110361460310433,-1.369283,-0.553431,0.5904,-0.45298,1.149978,1.414448,-0.833511,0.52561,-0.170274,-0.042679,-0.133901,0.0529191460310433,-1.359388,-0.567694,0.589065,-0.394384,1.040818,1.377919,-0.824372,0.537689,-0.176923,0.004319,-0.184921,0.0945411460310433,-1.350521,-0.581733,0.588117,-0.381903,0.91379,1.362396,-0.815324,0.549473,-0.182558,0.043946,-0.227207,0.1345841460310433,-1.342983,-0.595667,0.586977,-0.417409,0.795411,1.344293,-0.806387,0.561061,-0.186951,0.069769,-0.26379,0.1524961460310433,-1.336895,-0.609563,0.58512,-0.493387,0.698457,1.323637,-0.797572,0.57251,-0.190031,0.080485,-0.293167,0.1797011460310433,-1.332221,-0.623471,0.581977,-0.611861,0.64316,1.295009,-0.788861,0.583857,-0.191856,0.0827,-0.316691,0.2021871460310433,-1.328852,-0.637439,0.5771,-0.757953,0.628466,1.267085,-0.780216,0.595139,-0.192541,0.072956,-0.329255,0.1937311460310433,-1.326586,-0.651538,0.570332,-0.909297,0.64473,1.242225,-0.771559,0.60641,-0.19226,0.056867,-0.333217,0.177521460310433,-1.325208,-0.665697,0.561742,-1.04239,0.677966,1.211066,-0.762887,0.617608,-0.191216,0.035715,-0.325234,0.1521231460310433,-1.324521,-0.679858,0.551745,-1.131807,0.703671,1.188853,-0.754198,0.628682,-0.189589,0.008394,-0.312139,0.132431460310433,-1.32431,-0.694064,0.540944,-1.174442,0.714432,1.185246,-0.74542,0.639667,-0.18755,-0.02173,-0.293414,0.1034131460310433,-1.324397,-0.708383,0.529886,-1.175613,0.709176,1.196997,-0.736479,0.650606,-0.185232,-0.05678,-0.281573,0.0746971460310433,-1.324789,-0.737127,0.508815,-1.093715,0.661072,1.214941,-0.718111,0.672163,-0.180313,-0.12248,-0.30078,0.0372311460310433,-1.324552,-0.722778,0.519126,-1.137351,0.69103,1.211266,-0.727348,0.661471,-0.182815,-0.091973,-0.285494,0.0549921460310433,-1.32522,-0.75128,0.498934,-1.046799,0.620343,1.20266,-0.708889,0.682575,-0.177672,-0.161823,-0.316577,0.0208581460310433,-1.326681,-0.778224,0.480941,-0.908894,0.51176,1.123043,-0.691047,0.702015,-0.172128,-0.254799,-0.338276,-0.0037751460310433,-1.325878,-0.765063,0.489583,-0.98592,0.568806,1.17345,-0.699812,0.692582,-0.174908,-0.207354,-0.328416,0.0094571460310433,-1.327589,-0.79054,0.473123,-0.817861,0.450284,1.052485,-0.682759,0.710733,-0.169405,-0.294612,-0.348459,-0.0126931460310433,-1.328346,-0.801814,0.466269,-0.718094,0.408939,0.964857,-0.675066,0.718619,-0.166954,-0.325713,-0.359839,-0.0183491460310433,-1.328723,-0.811951,0.460273,-0.629894,0.397423,0.867428,-0.668021,0.725631,-0.164945,-0.347466,-0.374588,-0.0180081460310433,-1.328607,-0.820885,0.454955,-0.554359,0.407208,0.760215,-0.661682,0.731749,-0.163461,-0.367431,-0.380431,-0.0186221460310433,-1.327846,-0.828571,0.450316,-0.47449,0.424414,0.647678,-0.656079,0.736966,-0.162606,-0.388065,-0.379865,-0.0180731460310433,-1.326556,-0.834973,0.446349,-0.397867,0.424553,0.53303,-0.651277,0.741278,-0.162308,-0.408201,-0.361319,-0.0134271460310433,-1.325004,-0.840223,0.44296,-0.334255,0.402441,0.435419,-0.647241,0.744792,-0.16237,-0.432318,-0.327739,-0.014251460310433,-1.32339,-0.844533,0.440321,-0.257063,0.344182,0.361526,-0.64386,0.747661,-0.162627,-0.462738,-0.285228,-0.0145581460310433,-1.321849,-0.847982,0.438795,-0.158749,0.241139,0.297563,-0.641105,0.749947,-0.162982,-0.497384,-0.238656,-0.0179721460310433,-1.320719,-0.850632,0.438573,-0.054242,0.0912,0.240203,-0.638993,0.751697,-0.163214,-0.541473,-0.187397,-0.0241031460310433,-1.320291,-0.852458,0.439598,0.042753,-0.074728,0.180689,-0.637592,0.7529,-0.163148,-0.579922,-0.154847,-0.0269161460310433,-1.320618,-0.853468,0.441347,0.097317,-0.189427,0.108906,-0.636909,0.753565,-0.162751,-0.605004,-0.152765,-0.0330961460310433,-1.32141,-0.853615,0.443017,0.10221,-0.201741,0.017159,-0.63693,0.753661,-0.162218,-0.603015,-0.191894,-0.0431341460310433,-1.322027,-0.852674,0.443884,0.067235,-0.095816,-0.112668,-0.637717,0.753043,-0.162,-0.595483,-0.230353,-0.0505551460310433,-1.322437,-0.850344,0.443106,-0.015305,0.055822,-0.286822,-0.639483,0.751507,-0.162169,-0.610563,-0.217511,-0.0617841460310433,-1.323174,-0.846369,0.440205,-0.11276,0.166834,-0.484474,-0.642493,0.748879,-0.162429,-0.678812,-0.097085,-0.078371460310433,-1.324512,-0.841011,0.436024,-0.138419,0.176719,-0.6214,-0.646592,0.745317,-0.162545,-0.754867,0.070707,-0.1062081460310433,-1.325769,-0.834826,0.432637,-0.036931,0.105776,-0.666213,-0.651255,0.74118,-0.162847,-0.768026,0.156586,-0.1333261460310433,-1.325794,-0.828278,0.432198,0.196308,0.007186,-0.639322,-0.655954,0.736768,-0.164005,-0.739615,0.123599,-0.148161460310433,-1.323616,-0.821081,0.435856,0.493955,-0.069434,-0.651441,-0.660719,0.731883,-0.166726,-0.673631,0.012349,-0.1389071460310433,-1.319819,-0.812437,0.442718,0.724024,-0.134736,-0.760282,-0.666185,0.725965,-0.170798,-0.590102,-0.134061,-0.1059651460310433,-1.315517,-0.80187,0.450765,0.830935,-0.155346,-0.939737,-0.67283,0.718657,-0.175591,-0.517402,-0.242629,-0.0647051460310433,-1.311495,-0.78902,0.458553,0.870012,-0.15586,-1.176435,-0.680988,0.709663,-0.180648,-0.464566,-0.282097,-0.0280161460310433,-1.308351,-0.773546,0.465437,0.879356,-0.183163,-1.447479,-0.69094,0.698677,-0.185615,-0.425119,-0.258201,-0.0041281460310433,-1.306771,-0.755675,0.471304,0.881817,-0.278488,-1.685276,-0.702588,0.68578,-0.189935,-0.399356,-0.171834,0.0112851460310433,-1.307293,-0.735998,0.476358,0.876078,-0.444823,-1.85673,-0.715579,0.671327,-0.193046,-0.389005,-0.039644,0.0183481460310433,-1.310607,-0.715244,0.480653,0.846106,-0.686384,-1.9609,-0.729523,0.655801,-0.194217,-0.384475,0.110724,0.0091431460310433,-1.317078,-0.694008,0.484172,0.792204,-0.944609,-2.01184,-0.74408,0.639623,-0.192945,-0.392669,0.262599,-0.0094631460310433,-1.326049,-0.672915,0.48712,0.731658,-1.132019,-1.995785,-0.758703,0.623268,-0.189489,-0.382822,0.379463,-0.0279031460310433,-1.336329,-0.652735,0.489424,0.633702,-1.185589,-1.908922,-0.772689,0.607362,-0.184565,-0.352906,0.449508,-0.0529231460310433,-1.346881,-0.633924,0.490875,0.516693,-1.131221,-1.792655,-0.785595,0.592311,-0.178907,-0.307483,0.461309,-0.0862451460310433,-1.356641,-0.616408,0.491587,0.41714,-0.986315,-1.685052,-0.797321,0.578108,-0.17341,-0.266735,0.446276,-0.1141881460310433,-1.365051,-0.599987,0.491752,0.342375,-0.816011,-1.597597,-0.807935,0.564632,-0.168615,-0.218981,0.392705,-0.1477151460310433,-1.371968,-0.584092,0.491736,0.31922,-0.657937,-1.567312,-0.817778,0.551442,-0.164774,-0.171556,0.318462,-0.1735891460310433,-1.377284,-0.568052,0.492111,0.360398,-0.525956,-1.588708,-0.827217,0.537991,-0.162105,-0.126488,0.246723,-0.1864061460310433,-1.381162,-0.551364,0.493295,0.442307,-0.433808,-1.652337,-0.836541,0.52385,-0.160566,-0.071968,0.189911,-0.1827261460310433,-1.384186,-0.533685,0.495495,0.549698,-0.418618,-1.733663,-0.845991,0.508709,-0.159729,-0.015077,0.128345,-0.1847691460310433,-1.386763,-0.515071,0.499011,0.681427,-0.446096,-1.806105,-0.855562,0.492597,-0.159254,0.04114,0.116061,-0.1613181460310433,-1.389329,-0.495801,0.503905,0.810571,-0.518101,-1.83786,-0.865145,0.475736,-0.158742,0.092867,0.10042,-0.1453811460310434,-1.392339,-0.476165,0.510211,0.942637,-0.632655,-1.85131,-0.874645,0.458374,-0.157765,0.141674,0.094635,-0.1259871460310434,-1.396215,-0.456163,0.518,1.078873,-0.782429,-1.86782,-0.884103,0.440507,-0.155935,0.175515,0.091186,-0.104381460310434,-1.401084,-0.435767,0.527145,1.201313,-0.922608,-1.890885,-0.893523,0.422106,-0.153115,0.204039,0.093275,-0.079751460310434,-1.406949,-0.41498,0.537208,1.27374,-1.036045,-1.92301,-0.902868,0.403171,-0.149271,0.231466,0.098843,-0.0550291460310434,-1.421025,-0.372905,0.557595,1.243791,-1.124681,-1.957171,-0.920848,0.364322,-0.138957,0.287791,0.11839,-0.0204211460310434,-1.413674,-0.393956,0.547525,1.281139,-1.101244,-1.944103,-0.912023,0.383845,-0.14449,0.260961,0.105718,-0.0338091460310434,-1.428735,-0.351925,0.567084,1.17452,-1.110682,-1.96636,-0.929255,0.344706,-0.132906,0.308802,0.136374,-0.0177741460310434,-1.443739,-0.310196,0.58336,0.974534,-0.960984,-1.990981,-0.944598,0.305245,-0.120668,0.342058,0.179984,-0.0217421460310434,-1.436402,-0.331024,0.575707,1.075553,-1.046496,-1.978095,-0.937182,0.325012,-0.126716,0.32622,0.157868,-0.0153281460310434,-1.450595,-0.289427,0.590105,0.879915,-0.870139,-2.000623,-0.951492,0.285403,-0.114925,0.359756,0.203565,-0.0277751460310434,-1.456956,-0.268771,0.596054,0.796937,-0.787796,-2.000528,-0.957857,0.265547,-0.109516,0.381533,0.226869,-0.0377621460310434,-1.462895,-0.248355,0.601421,0.731926,-0.721392,-1.983145,-0.963681,0.245809,-0.104388,0.407651,0.249262,-0.0451331460310434,-1.468591,-0.22832,0.606296,0.673118,-0.68371,-1.951739,-0.968965,0.226341,-0.099379,0.430772,0.271309,-0.0516831460310434,-1.474139,-0.2087,0.610838,0.631328,-0.652439,-1.914827,-0.973735,0.207188,-0.094413,0.451808,0.295559,-0.0517361460310434,-1.479599,-0.189574,0.615119,0.590501,-0.630708,-1.868268,-0.978004,0.18844,-0.089439,0.471686,0.321798,-0.0536421460310434,-1.484962,-0.171144,0.619022,0.536711,-0.60453,-1.798346,-0.981763,0.17031,-0.084476,0.491361,0.349359,-0.0487481460310434,-1.490172,-0.153629,0.622528,0.479568,-0.577144,-1.707101,-0.985012,0.153026,-0.079589,0.51054,0.378102,-0.0463421460310434,-1.495316,-0.137219,0.625669,0.427579,-0.562448,-1.596553,-0.98778,0.136789,-0.0747,0.525332,0.407981,-0.0478591460310434,-1.500488,-0.122083,0.628454,0.376511,-0.556187,-1.469955,-0.990105,0.12178,-0.069728,0.539818,0.434312,-0.0506191460310434,-1.505689,-0.10833,0.630927,0.330688,-0.554138,-1.332622,-0.992032,0.108118,-0.06468,0.554928,0.454595,-0.0562011460310434,-1.510869,-0.095913,0.633216,0.300971,-0.540451,-1.202657,-0.993617,0.095766,-0.059616,0.565471,0.479491,-0.058931460310434,-1.515881,-0.08496,0.635327,0.264717,-0.520215,-1.051414,-0.994891,0.084858,-0.05469,0.573871,0.498745,-0.063521460310434,-1.520811,-0.075659,0.636997,0.199517,-0.507278,-0.886521,-0.995894,0.075587,-0.049822,0.570479,0.529271,-0.0709211460310434,-1.525561,-0.068061,0.638032,0.119403,-0.477211,-0.717539,-0.996664,0.068008,-0.045116,0.559149,0.572754,-0.0770771460310434,-1.529775,-0.062417,0.638244,0.021037,-0.406362,-0.514672,-0.997213,0.062377,-0.04093,0.545889,0.618363,-0.0875941460310434,-1.533106,-0.059028,0.637593,-0.075271,-0.304434,-0.286254,-0.997549,0.058994,-0.037616,0.528418,0.662549,-0.0990111460310434,-1.535265,-0.058033,0.636141,-0.165171,-0.17472,-0.045052,-0.997686,0.058001,-0.035464,0.506247,0.697737,-0.1135081460310434,-1.536072,-0.059445,0.633946,-0.24434,-0.033319,0.194072,-0.997632,0.05941,-0.034656,0.490689,0.70826,-0.1242491460310434,-1.535569,-0.063246,0.631296,-0.287255,0.099458,0.434607,-0.997381,0.063204,-0.035149,0.486197,0.692106,-0.1376721460310434,-1.533904,-0.06945,0.628691,-0.280058,0.211824,0.673505,-0.996911,0.069394,-0.036795,0.483391,0.658389,-0.1455631460310434,-1.531384,-0.07785,0.626573,-0.231224,0.282356,0.891539,-0.996197,0.077771,-0.039283,0.46632,0.613696,-0.1362851460310434,-1.52875,-0.088067,0.625125,-0.177003,0.269407,1.062891,-0.995244,0.087953,-0.041871,0.401021,0.642363,-0.113251460310434,-1.526545,-0.099955,0.623622,-0.222194,0.226906,1.238804,-0.994035,0.099789,-0.044016,0.294755,0.77985,-0.0613771460310434,-1.524741,-0.114257,0.620959,-0.375746,0.20978,1.502318,-0.992426,0.114008,-0.045739,0.233683,0.887548,-0.0244521460310434,-1.522844,-0.132207,0.616767,-0.544923,0.261731,1.892548,-0.990134,0.131822,-0.047516,0.187461,0.93019,-0.0184941460310434,-1.520296,-0.154555,0.611536,-0.654581,0.353313,2.337633,-0.986821,0.15394,-0.049877,0.154042,0.88677,-0.0298961460310434,-1.517583,-0.180982,0.606274,-0.650965,0.355699,2.723115,-0.982275,0.179995,-0.05232,0.127768,0.759153,-0.0831631460310434,-1.515356,-0.210094,0.602214,-0.521605,0.284273,2.956161,-0.976509,0.208552,-0.054194,0.079093,0.584752,-0.1325891460310434,-1.513522,-0.239872,0.6004,-0.282988,0.199536,2.984126,-0.969775,0.237579,-0.055604,0.019183,0.402482,-0.1635731460310434,-1.512324,-0.268539,0.601277,-0.016677,0.066796,2.850179,-0.962512,0.265324,-0.056345,-0.059629,0.282574,-0.1900541460310434,-1.511232,-0.294842,0.60433,0.181398,0.017754,2.597931,-0.955151,0.290588,-0.05696,-0.147281,0.223221,-0.1617751460310434,-1.509606,-0.318016,0.608451,0.270343,0.054947,2.273999,-0.94808,0.312683,-0.058086,-0.218119,0.195786,-0.1237081460310434,-1.506994,-0.338012,0.612618,0.262271,0.15434,1.962913,-0.941496,0.331612,-0.060152,-0.271349,0.219566,-0.0663131460310434,-1.503763,-0.355383,0.615819,0.155506,0.237314,1.710809,-0.935408,0.34795,-0.062798,-0.30765,0.294872,-0.0214921460310434,-1.500333,-0.371035,0.617127,-0.037318,0.320029,1.549782,-0.92964,0.36258,-0.065614,-0.335359,0.403869,0.010561460310434,-1.496902,-0.386066,0.615938,-0.283192,0.417436,1.498226,-0.923869,0.376547,-0.068393,-0.344426,0.478952,0.0150491460310434,-1.493107,-0.401469,0.612151,-0.529509,0.569771,1.534054,-0.917711,0.390771,-0.07144,-0.343183,0.501212,0.0126331460310434,-1.488737,-0.417378,0.606168,-0.722371,0.717608,1.556483,-0.911079,0.405365,-0.074931,-0.323617,0.46579,-0.0213671460310434,-1.483634,-0.433121,0.599013,-0.801665,0.844448,1.511629,-0.904215,0.419706,-0.079014,-0.305502,0.383898,-0.0759241460310434,-1.477318,-0.447957,0.591761,-0.785437,0.98341,1.401372,-0.897399,0.433125,-0.084132,-0.283326,0.289913,-0.099661460310434,-1.469668,-0.461551,0.584941,-0.732831,1.102946,1.270136,-0.890788,0.445338,-0.090393,-0.242146,0.184789,-0.1165621460310434,-1.460618,-0.473522,0.578834,-0.655393,1.218962,1.098553,-0.884572,0.456023,-0.097857,-0.185863,0.095841,-0.1005221460310434,-1.450272,-0.483868,0.573114,-0.624997,1.339453,0.939358,-0.87878,0.465207,-0.10643,-0.129459,0.011249,-0.0669551460310434,-1.438788,-0.492736,0.567297,-0.626635,1.46325,0.783078,-0.873376,0.473038,-0.115967,-0.071219,-0.041474,-0.0226591460310434,-1.426357,-0.500231,0.561202,-0.645528,1.572272,0.643776,-0.868334,0.479629,-0.126301,-0.004087,-0.095595,0.0310411460310434,-1.413406,-0.506945,0.554781,-0.668264,1.62624,0.566536,-0.863426,0.485509,-0.137028,0.063362,-0.141088,0.0734751460310434,-1.400974,-0.513199,0.548094,-0.687349,1.558801,0.51639,-0.858646,0.490967,-0.147236,0.122837,-0.179184,0.1030311460310434,-1.39025,-0.519255,0.541341,-0.688937,1.361387,0.493483,-0.854077,0.496233,-0.155898,0.158368,-0.215777,0.1298821460310434,-1.37547,-0.530718,0.528257,-0.675044,0.932295,0.432974,-0.846044,0.506153,-0.167389,0.169835,-0.257175,0.1659241460310434,-1.381872,-0.525129,0.53479,-0.665078,1.11699,0.472008,-0.849864,0.501324,-0.162498,0.174342,-0.244092,0.1485971460310434,-1.371097,-0.535801,0.520742,-0.765656,0.804099,0.354626,-0.842771,0.51053,-0.170575,0.15286,-0.260362,0.1677521460310434,-1.367514,-0.540422,0.51215,-0.836675,0.81991,0.293097,-0.839836,0.514498,-0.173114,0.110084,-0.283861,0.1512031460310434,-1.362829,-0.544445,0.502968,-0.868529,1.007176,0.212171,-0.836983,0.517943,-0.176619,0.049996,-0.281371,0.1153241460310434,-1.356165,-0.547655,0.492723,-0.959696,1.275494,0.105924,-0.834159,0.520687,-0.181838,0.041449,-0.291774,0.098541460310434,-1.348761,-0.55048,0.480573,-1.126343,1.401354,0.035753,-0.831351,0.523096,-0.187684,0.067328,-0.316615,0.1035471460310434,-1.342823,-0.553082,0.466407,-1.273409,1.320271,-0.036824,-0.828893,0.525312,-0.192309,0.062856,-0.337919,0.0870691460310434,-1.337604,-0.555504,0.451826,-1.267223,1.308677,-0.012177,-0.826638,0.527371,-0.196338,0.008203,-0.315671,0.0671271460310434,-1.332522,-0.560997,0.438718,-1.194264,1.180421,0.316647,-0.822802,0.532031,-0.199849,-0.061521,-0.298251,0.0069021460310434,-1.326705,-0.565893,0.426247,-1.150596,1.243638,0.213265,-0.819089,0.53617,-0.204,0.017712,-0.364203,0.0879871460310434,-1.322746,-0.570418,0.414321,-1.050908,0.987231,0.180743,-0.815914,0.539984,-0.206643,-0.056126,-0.384329,0.0110411460310434,-1.320038,-0.573849,0.404531,-0.844193,0.744186,0.116014,-0.813552,0.542869,-0.208391,-0.06157,-0.410651,0.0215631460310434,-1.319431,-0.576297,0.395766,-0.780455,0.464053,0.024524,-0.812136,0.544923,-0.208554,-0.144682,-0.394532,-0.0046571460310434,-1.32595,-0.576867,0.3835,-1.113572,-0.147805,-0.259483,-0.813176,0.545401,-0.20318,-0.171855,-0.06832,-0.0858521460310434,-1.336742,-0.577681,0.36985,-1.094579,-0.343546,-0.17544,-0.81489,0.546082,-0.194289,-0.041586,-0.584245,-0.0620741460310434,-1.343756,-0.576934,0.360051,-0.684973,-0.100274,-0.311411,-0.81663,0.545457,-0.188661,-0.169042,-0.691895,0.1139841460310434,-1.348253,-0.573836,0.352793,-0.502272,-0.075106,-0.468988,-0.819114,0.542858,-0.185359,-0.216226,-0.40057,0.1161141460310434,-1.354031,-0.570185,0.346124,-0.462228,-0.258728,-0.484102,-0.822101,0.539788,-0.181047,-0.19006,-0.448449,0.0098741460310434,-1.36054,-0.566563,0.339581,-0.484946,-0.311883,-0.468123,-0.825169,0.536735,-0.1761,-0.14503,-0.392204,0.0845771460310434,-1.366892,-0.563626,0.333418,-0.423763,-0.311427,-0.367223,-0.827811,0.534255,-0.171173,-0.185037,-0.378798,0.0824741460310434,-1.371871,-0.561258,0.329305,-0.253303,-0.25814,-0.295425,-0.829891,0.532251,-0.167299,-0.247364,-0.399073,0.0479291460310434,-1.374929,-0.558864,0.326828,-0.13677,-0.147388,-0.266982,-0.831647,0.530223,-0.165008,-0.297641,-0.308757,0.123581460310434,-1.37649,-0.557222,0.325194,-0.098774,-0.044446,-0.158052,-0.832756,0.528831,-0.163877,-0.335564,-0.301948,0.1232431460310434,-1.376269,-0.556865,0.323914,-0.104416,0.143002,-0.026268,-0.832905,0.528527,-0.164098,-0.374035,-0.266183,0.1482281460310434,-1.373963,-0.557482,0.322536,-0.136268,0.3622,0.055007,-0.832204,0.529051,-0.165954,-0.411753,-0.249755,0.1357111460310434,-1.369023,-0.558747,0.320836,-0.180396,0.674024,0.107065,-0.830718,0.530124,-0.16993,-0.465287,-0.263492,0.1168291460310434,-1.361169,-0.560651,0.318385,-0.271442,1.004118,0.160795,-0.828369,0.531738,-0.176238,-0.454788,-0.299102,0.1006911460310434,-1.350684,-0.563575,0.314915,-0.374486,1.32484,0.245412,-0.824955,0.534212,-0.184573,-0.469906,-0.365587,0.0670811460310434,-1.337576,-0.567238,0.310971,-0.421954,1.592941,0.295439,-0.820555,0.537305,-0.194917,-0.481172,-0.375516,0.0757761460310434,-1.32401,-0.57158,0.306471,-0.494946,1.597771,0.353513,-0.815566,0.540961,-0.205458,-0.538682,-0.218711,0.0281821460310434,-1.312379,-0.577157,0.302077,-0.491508,1.340564,0.492062,-0.810191,0.545644,-0.214156,-0.57256,-0.02802,-0.093341460310434,-1.30253,-0.584465,0.299981,-0.304259,1.044008,0.730566,-0.804176,0.551753,-0.221062,-0.58654,0.035268,-0.1655951460310434,-1.292766,-0.593066,0.301916,-0.004262,0.815017,0.910055,-0.797387,0.558906,-0.227593,-0.56623,-0.003074,-0.1859051460310434,-1.284742,-0.600952,0.306358,0.163743,0.464298,0.832501,-0.791282,0.565428,-0.232733,-0.487145,-0.146101,-0.2104591460310434,-1.280432,-0.606176,0.310514,0.181953,0.116743,0.510184,-0.78743,0.569729,-0.235292,-0.388778,-0.283993,-0.2090131460310434,-1.278947,-0.607487,0.313837,0.247136,-0.085337,0.109891,-0.786364,0.570806,-0.236245,-0.345853,-0.366139,-0.1591861460310434,-1.279117,-0.605217,0.317281,0.370587,-0.26046,-0.216301,-0.787643,0.56894,-0.236484,-0.351364,-0.304597,-0.1394771460310434,-1.280849,-0.599923,0.321278,0.501984,-0.460766,-0.472943,-0.790927,0.564579,-0.235977,-0.314511,-0.195621,-0.1284941460310434,-1.284767,-0.592838,0.326168,0.624593,-0.747618,-0.589525,-0.795663,0.558717,-0.233999,-0.284598,-0.047792,-0.1338291460310434,-1.290937,-0.585285,0.332338,0.73666,-1.035778,-0.578065,-0.801125,0.552437,-0.230245,-0.290718,0.122352,-0.1428481460310434,-1.298544,-0.578208,0.339787,0.812261,-1.218871,-0.492499,-0.806598,0.546524,-0.22519,-0.3056,0.270203,-0.1586451460310435,-1.306945,-0.571835,0.347691,0.8105,-1.28886,-0.430373,-0.811808,0.541176,-0.21931,-0.311804,0.367942,-0.1722161460310435,-1.315473,-0.565932,0.355281,0.760236,-1.260831,-0.404203,-0.816725,0.536203,-0.213182,-0.316804,0.402899,-0.1845541460310435,-1.323932,-0.560367,0.362034,0.67715,-1.202994,-0.400832,-0.82138,0.531497,-0.206991,-0.326081,0.409757,-0.2067511460310435,-1.332276,-0.554721,0.368047,0.627478,-1.151946,-0.445197,-0.825981,0.526706,-0.200837,-0.324119,0.379803,-0.2301941460310435,-1.340507,-0.548236,0.37388,0.64856,-1.139858,-0.549689,-0.830915,0.521183,-0.194807,-0.308413,0.321484,-0.2474241460310435,-1.348762,-0.54054,0.380038,0.709094,-1.159928,-0.66335,-0.836382,0.514599,-0.188818,-0.285536,0.262744,-0.249491460310435,-1.357001,-0.531957,0.386781,0.773569,-1.185076,-0.73425,-0.842195,0.507221,-0.182852,-0.236891,0.205334,-0.2374821460310435,-1.36526,-0.522663,0.394146,0.841216,-1.212344,-0.801913,-0.848255,0.499189,-0.176844,-0.176022,0.156725,-0.2244621460310435,-1.373335,-0.51244,0.402289,0.928298,-1.222744,-0.891881,-0.854615,0.490305,-0.170981,-0.134261,0.115316,-0.208521460310435,-1.381012,-0.501106,0.411222,1.014514,-1.206577,-0.996885,-0.861305,0.480395,-0.165453,-0.087182,0.09007,-0.1875441460310435,-1.388112,-0.488606,0.420785,1.08381,-1.162691,-1.110662,-0.868295,0.469395,-0.160413,-0.034796,0.071453,-0.1698791460310435,-1.394532,-0.475048,0.430881,1.148761,-1.102685,-1.206374,-0.875492,0.457381,-0.155936,0.015064,0.058427,-0.1491631460310435,-1.400243,-0.460817,0.441435,1.193135,-1.043437,-1.26169,-0.882694,0.44468,-0.152023,0.079502,0.049216,-0.1269681460310435,-1.405378,-0.44611,0.452186,1.212961,-0.974498,-1.312977,-0.889818,0.43146,-0.148549,0.14528,0.04492,-0.1074781460310435,-1.409995,-0.430909,0.462889,1.211459,-0.906586,-1.367651,-0.896865,0.417697,-0.145473,0.188964,0.04559,-0.0868421460310435,-1.414263,-0.415286,0.473345,1.19491,-0.85031,-1.413879,-0.903814,0.403451,-0.142644,0.229559,0.049933,-0.0702161460310435,-1.418504,-0.39947,0.483491,1.166316,-0.832243,-1.436606,-0.910604,0.388931,-0.13976,0.270864,0.058549,-0.0520891460310435,-1.42321,-0.383574,0.493237,1.126837,-0.858886,-1.451818,-0.917252,0.374237,-0.136365,0.312073,0.0699,-0.0354031460310435,-1.435328,-0.352062,0.511155,1.016441,-0.988677,-1.452388,-0.930064,0.344834,-0.126771,0.378764,0.101348,-0.016281460310435,-1.428758,-0.367753,0.50246,1.073286,-0.917408,-1.455312,-0.92374,0.35952,-0.132096,0.34856,0.082436,-0.0234211460310435,-1.443064,-0.336744,0.519301,0.953973,-1.084283,-1.421679,-0.936146,0.330415,-0.120231,0.404744,0.117583,-0.0070581460310435,-1.451974,-0.321833,0.527009,0.904385,-1.168222,-1.395164,-0.941968,0.316306,-0.112457,0.436261,0.12922,-0.0174261460310435,-1.461604,-0.307482,0.534397,0.855817,-1.21255,-1.343134,-0.947423,0.302659,-0.103864,0.466633,0.16696,-0.0167411460310435,-1.47175,-0.293796,0.541576,0.82648,-1.245181,-1.287768,-0.952461,0.289587,-0.094647,0.491859,0.182031,-0.031391460310435,-1.482309,-0.280742,0.548651,0.796106,-1.273557,-1.23456,-0.957091,0.277069,-0.084912,0.520857,0.189392,-0.0393711460310435,-1.49317,-0.268128,0.555488,0.755319,-1.282876,-1.208194,-0.961365,0.264926,-0.074777,0.528259,0.199673,-0.0405181460310435,-1.504183,-0.255761,0.561923,0.701879,-1.276251,-1.195867,-0.965325,0.252982,-0.064398,0.530908,0.212656,-0.038691460310435,-1.515157,-0.243835,0.568039,0.659996,-1.251319,-1.149327,-0.968918,0.241426,-0.053965,0.533691,0.228255,-0.036841460310435,-1.525831,-0.232836,0.573739,0.596511,-1.19723,-1.053947,-0.972032,0.230738,-0.043737,0.545732,0.259588,-0.0331221460310435,-1.535898,-0.222941,0.578671,0.497913,-1.100358,-0.953664,-0.974658,0.221099,-0.034028,0.561266,0.285707,-0.0204461460310435,-1.545219,-0.21359,0.58284,0.429813,-1.01693,-0.943833,-0.976957,0.21197,-0.024994,0.550519,0.320287,-0.0190131460310435,-1.553316,-0.202749,0.588367,0.618103,-0.873274,-1.079298,-0.979367,0.201363,-0.017122,0.449338,0.570411,-0.0889881460310435,-1.561139,-0.191741,0.592535,0.333471,-0.868527,-1.129844,-0.981628,0.190568,-0.00948,0.466293,0.361647,-0.0579951460310435,-1.568215,-0.182362,0.595206,0.250837,-0.72689,-0.854447,-0.983415,0.181353,-0.002539,0.532838,0.259809,-0.0085391460310435,-1.5743,-0.175875,0.596633,0.098976,-0.607656,-0.611618,-0.984568,0.174969,0.00345,0.595789,0.263706,-0.0593271460310435,-1.579259,-0.171083,0.596176,-0.10138,-0.450306,-0.43446,-0.985366,0.170249,0.00834,0.470336,0.493233,-0.0467921460310435,-1.584973,-0.167388,0.590644,-0.325188,-0.126221,-0.034853,-0.985924,0.166607,0.013978,0.390008,0.629673,-0.1143961460310435,-1.582817,-0.168255,0.593826,-0.271975,-0.277956,-0.232531,-0.985807,0.167462,0.011851,0.431929,0.558063,-0.062191460310435,-1.585642,-0.168435,0.587497,-0.301532,0.02101,0.159238,-0.98574,0.167639,0.014635,0.361548,0.684473,-0.1682141460310435,-1.585006,-0.17145,0.585168,-0.194781,0.12644,0.356316,-0.985239,0.170611,0.014001,0.36532,0.660306,-0.204721460310435,-1.583402,-0.176318,0.584503,-0.011195,0.186753,0.534981,-0.984418,0.175406,0.01241,0.37042,0.593256,-0.2329451460310435,-1.581077,-0.182971,0.585767,0.179739,0.216135,0.71594,-0.983255,0.181952,0.010109,0.392588,0.52038,-0.2270431460310435,-1.576607,-0.201404,0.593492,0.495114,0.080696,1.027681,-0.97977,0.200045,0.005693,0.335636,0.531308,-0.0654311460310435,-1.578578,-0.191474,0.588844,0.356558,0.17945,0.898043,-0.981695,0.190306,0.007639,0.422979,0.453248,-0.1944681460310435,-1.575523,-0.212432,0.598197,0.438496,-0.004825,1.139559,-0.97751,0.210838,0.00462,0.25049,0.73124,0.0197941460310435,-1.574752,-0.225218,0.600453,0.144664,0.054911,1.353568,-0.974738,0.223319,0.003855,0.229849,0.8453,0.0891771460310435,-1.573234,-0.241377,0.59929,-0.186304,0.223498,1.735628,-0.971007,0.239039,0.002367,0.244841,0.818532,0.0844251460310435,-1.571014,-0.261875,0.595601,-0.401529,0.338808,2.176517,-0.965906,0.258892,0.00021,0.233423,0.694401,0.015141460310435,-1.568855,-0.286104,0.59098,-0.44991,0.335727,2.516716,-0.959349,0.282217,-0.001863,0.16078,0.523356,-0.0695491460310435,-1.567243,-0.311975,0.587448,-0.298337,0.236758,2.617638,-0.951723,0.306939,-0.003382,0.07445,0.322258,-0.162741460310435,-1.566188,-0.337225,0.586578,-0.020496,0.098821,2.510502,-0.943666,0.33087,-0.004349,-0.007689,0.17325,-0.2052921460310435,-1.565508,-0.36058,0.588657,0.246367,-0.033326,2.300748,-0.935679,0.352817,-0.004948,-0.095845,0.148022,-0.1883651460310435,-1.564851,-0.381682,0.592695,0.397242,-0.091663,2.075878,-0.928023,0.372482,-0.005518,-0.152208,0.189027,-0.1282411460310435,-1.564059,-0.400972,0.597229,0.405877,-0.095894,1.913669,-0.920661,0.390313,-0.006203,-0.180672,0.269492,-0.0621871460310435,-1.563503,-0.419243,0.601191,0.333863,-0.107951,1.828725,-0.913373,0.407069,-0.006662,-0.218585,0.394308,-0.0336061460310435,-1.563592,-0.437247,0.604252,0.248365,-0.151476,1.821704,-0.905897,0.423447,-0.006526,-0.258333,0.514343,-0.0303851460310435,-1.564623,-0.455683,0.606645,0.19431,-0.227745,1.879122,-0.897944,0.440076,-0.005543,-0.293188,0.594501,-0.0458481460310435,-1.566324,-0.475028,0.608725,0.175282,-0.273995,1.978396,-0.889271,0.457363,-0.003978,-0.309444,0.596363,-0.0764821460310435,-1.567825,-0.495266,0.611026,0.211075,-0.247997,2.059779,-0.879839,0.475265,-0.002614,-0.319975,0.530182,-0.1169841460310435,-1.567984,-0.515835,0.614115,0.287167,-0.131888,2.073972,-0.869878,0.493261,-0.002446,-0.323039,0.425547,-0.1390331460310435,-1.560544,-0.554153,0.623969,0.492384,0.295585,1.801125,-0.850302,0.526223,-0.008718,-0.308771,0.168876,-0.0884351460310435,-1.565777,-0.535818,0.618367,0.392001,0.059228,1.98782,-0.85984,0.510545,-0.004316,-0.320046,0.296233,-0.1320821460310435,-1.552469,-0.570233,0.630279,0.514081,0.534038,1.573161,-0.841634,0.539828,-0.015427,-0.272395,0.062909,-0.0281521460310435,-1.542384,-0.584126,0.635789,0.396893,0.772979,1.361069,-0.833858,0.551471,-0.023698,-0.20934,-0.020022,0.0414751460310435,-1.531179,-0.596278,0.639084,0.174701,0.999717,1.197214,-0.826783,0.561566,-0.032772,-0.139724,-0.067914,0.1100121460310435,-1.519904,-0.607434,0.63956,-0.06972,1.134222,1.110322,-0.820052,0.570763,-0.04177,-0.068116,-0.100441,0.1326061460310435,-1.509508,-0.618256,0.638002,-0.218923,1.130154,1.074865,-0.81336,0.579615,-0.049912,-0.019464,-0.126612,0.1253821460310435,-1.50045,-0.628855,0.635621,-0.275675,1.02351,1.047999,-0.806701,0.588219,-0.056842,0.024978,-0.15374,0.1117591460310435,-1.492828,-0.639293,0.633028,-0.288822,0.889074,1.03014,-0.80008,0.596628,-0.062508,0.056046,-0.177301,0.0920031460310435,-1.486296,-0.649621,0.63069,-0.264621,0.771658,1.022164,-0.793472,0.604885,-0.067208,0.079894,-0.203243,0.0696951460310435,-1.480352,-0.659881,0.628984,-0.210439,0.685096,1.016493,-0.786836,0.613022,-0.07136,0.092653,-0.235215,0.0471741460310435,-1.474419,-0.669908,0.628177,-0.141045,0.639973,0.993744,-0.780241,0.620914,-0.075431,0.096388,-0.270663,0.0379251460310435,-1.468173,-0.679518,0.628126,-0.089528,0.634241,0.952569,-0.773783,0.628418,-0.079688,0.099787,-0.301606,0.0418621460310435,-1.461388,-0.688505,0.628659,-0.043084,0.659314,0.889901,-0.767579,0.635384,-0.084317,0.103441,-0.327217,0.0566371460310435,-1.453867,-0.696879,0.629708,-0.006258,0.701535,0.836707,-0.761613,0.641827,-0.089463,0.107102,-0.348492,0.0871591460310435,-1.445777,-0.704865,0.631053,0.006902,0.735427,0.805751,-0.755754,0.647931,-0.09498,0.118334,-0.360501,0.1218661460310435,-1.437545,-0.712683,0.632427,0.000605,0.73963,0.79287,-0.749903,0.653866,-0.100521,0.121195,-0.372662,0.1575591460310435,-1.429615,-0.720479,0.633706,-0.014476,0.702356,0.793919,-0.744013,0.659745,-0.105744,0.11886,-0.387955,0.1792921460310435,-1.422425,-0.728457,0.635019,-0.017098,0.611871,0.817661,-0.738004,0.665719,-0.110309,0.116513,-0.402215,0.1908151460310435,-1.416176,-0.736694,0.636618,0.00041,0.489373,0.847014,-0.731858,0.671843,-0.11407,0.110047,-0.420195,0.197461460310435,-1.410923,-0.745113,0.638841,0.044561,0.33903,0.869209,-0.725638,0.678055,-0.117009,0.094351,-0.435761,0.1961871460310435,-1.406647,-0.753468,0.64187,0.098504,0.186363,0.864803,-0.719517,0.684172,-0.119181,0.070271,-0.445937,0.1949561460310435,-1.403222,-0.761596,0.64559,0.142991,0.057121,0.850634,-0.713598,0.690078,-0.120712,0.041173,-0.450438,0.1938781460310435,-1.400483,-0.769613,0.649687,0.161941,-0.029338,0.845722,-0.707789,0.695857,-0.121725,0.010936,-0.444759,0.1960511460310435,-1.398357,-0.777533,0.653797,0.152218,-0.089106,0.833005,-0.702077,0.701524,-0.12228,-0.021342,-0.427568,0.1843371460310435,-1.396977,-0.785275,0.657628,0.129764,-0.148905,0.8095,-0.696538,0.70702,-0.122306,-0.065074,-0.388859,0.1749031460310435,-1.396675,-0.792763,0.661007,0.097668,-0.236456,0.777453,-0.691267,0.712295,-0.121596,-0.127306,-0.323867,0.1599561460310435,-1.397807,-0.800027,0.663871,0.066504,-0.351701,0.750836,-0.686289,0.717375,-0.119919,-0.199804,-0.236388,0.1376041460310435,-1.400363,-0.807192,0.666553,0.061811,-0.488226,0.743734,-0.68151,0.722348,-0.11729,-0.276467,-0.144834,0.110211460310435,-1.404247,-0.81436,0.669236,0.063484,-0.618318,0.74521,-0.676837,0.727287,-0.113781,-0.345243,-0.07772,0.0811271460310435,-1.408975,-0.821527,0.672005,0.072833,-0.6962,0.743392,-0.672206,0.732187,-0.109737,-0.406377,-0.055093,0.0606031460310435,-1.41384,-0.828549,0.674952,0.093223,-0.707045,0.723316,-0.667637,0.736951,-0.105659,-0.446911,-0.093381,0.0336531460310435,-1.417968,-0.834985,0.678183,0.124937,-0.633986,0.653967,-0.663366,0.741287,-0.102178,-0.461161,-0.195815,-0.0036571460310435,-1.420717,-0.840191,0.681451,0.14037,-0.481351,0.512697,-0.65982,0.74477,-0.099776,-0.456315,-0.315724,-0.0333271460310435,-1.422302,-0.843414,0.683851,0.094657,-0.293911,0.282165,-0.6576,0.746917,-0.098374,-0.466271,-0.374252,-0.0531611460310435,-1.424195,-0.843904,0.684123,-0.022293,-0.197424,-0.03093,-0.657422,0.747243,-0.097075,-0.535723,-0.273351,-0.0637981460310435,-1.428523,-0.841452,0.681883,-0.137851,-0.304586,-0.339125,-0.659648,0.745611,-0.094489,-0.667531,0.029978,-0.0832761460310435,-1.435433,-0.836934,0.678919,-0.118207,-0.54031,-0.511216,-0.663616,0.742593,-0.090382,-0.777927,0.334296,-0.1074641460310435,-1.443209,-0.831762,0.678315,0.093314,-0.800024,-0.51072,-0.6681,0.739119,-0.085707,-0.80889,0.50728,-0.1367511460310435,-1.449476,-0.827242,0.682401,0.413096,-0.973945,-0.383544,-0.671933,0.736067,-0.081921,-0.762942,0.463594,-0.15251460310436,-1.453899,-0.823226,0.690514,0.649413,-1.063881,-0.335297,-0.675219,0.733343,-0.079293,-0.678266,0.256418,-0.1698221460310436,-1.457461,-0.818277,0.699881,0.694223,-1.034956,-0.465259,-0.679095,0.729969,-0.077297,-0.61189,0.034344,-0.1599321460310436,-1.461377,-0.810892,0.707219,0.541064,-0.892452,-0.768132,-0.684733,0.724902,-0.075224,-0.583135,-0.07181,-0.1583431460310436,-1.466028,-0.80008,0.710906,0.318295,-0.683094,-1.155099,-0.69283,0.717412,-0.072853,-0.576427,-0.062459,-0.1705551460310436,-1.470721,-0.785835,0.711704,0.173165,-0.483334,-1.507191,-0.703261,0.707416,-0.070615,-0.553636,0.044705,-0.1887081460310436,-1.474745,-0.769003,0.711201,0.122009,-0.339638,-1.744045,-0.715292,0.695419,-0.068917,-0.496165,0.182037,-0.2009351460310436,-1.478163,-0.750749,0.710645,0.144303,-0.306287,-1.858201,-0.728043,0.682186,-0.067634,-0.426894,0.317157,-0.2064591460310436,-1.481506,-0.73211,0.711184,0.238989,-0.406816,-1.862409,-0.740803,0.668441,-0.066323,-0.352307,0.408189,-0.2161631460310436,-1.485342,-0.71404,0.713518,0.36687,-0.592172,-1.774245,-0.752964,0.654893,-0.064501,-0.270381,0.449569,-0.2192821460310436,-1.490188,-0.697092,0.717542,0.475131,-0.804934,-1.643458,-0.764223,0.641991,-0.061737,-0.201125,0.444588,-0.217531460310436,-1.496429,-0.681417,0.722673,0.531139,-1.007969,-1.515293,-0.774534,0.629894,-0.057707,-0.158068,0.423069,-0.2241841460310436,-1.504175,-0.666661,0.728198,0.539642,-1.164266,-1.437868,-0.784148,0.618365,-0.052318,-0.142549,0.397214,-0.235891460310436,-1.513022,-0.652356,0.733733,0.526307,-1.25255,-1.40782,-0.79333,0.60706,-0.045885,-0.136342,0.367885,-0.2523631460310436,-1.522403,-0.638124,0.73908,0.497482,-1.269579,-1.415494,-0.802274,0.59569,-0.038855,-0.131014,0.335508,-0.2706391460310436,-1.531626,-0.62364,0.743968,0.448894,-1.196087,-1.451376,-0.811135,0.583994,-0.031789,-0.118079,0.306707,-0.2792011460310436,-1.539823,-0.608833,0.748466,0.416578,-1.050135,-1.488403,-0.819922,0.571911,-0.025404,-0.095773,0.274006,-0.2881941460310436,-1.546257,-0.593767,0.753127,0.439809,-0.868008,-1.51331,-0.82859,0.559487,-0.020337,-0.05552,0.228324,-0.2963431460310436,-1.55056,-0.578474,0.758645,0.52169,-0.704175,-1.538718,-0.837127,0.546747,-0.016942,-0.006669,0.178641,-0.3037671460310436,-1.552939,-0.562799,0.765621,0.657931,-0.598181,-1.58056,-0.84563,0.533556,-0.015102,0.042224,0.123579,-0.3031351460310436,-1.553928,-0.546548,0.774314,0.812245,-0.555276,-1.642341,-0.854202,0.519741,-0.01441,0.091614,0.080876,-0.2833961460310436,-1.555016,-0.51169,0.796187,1.069183,-0.674287,-1.802037,-0.871809,0.489652,-0.013759,0.189024,0.024325,-0.2266741460310436,-1.55434,-0.529522,0.784598,0.953627,-0.584959,-1.722166,-0.862932,0.505121,-0.014202,0.141389,0.047583,-0.2571291460310436,-1.556531,-0.493047,0.808603,1.141988,-0.783771,-1.884354,-0.880805,0.473312,-0.012566,0.234214,0.022355,-0.1979291460310436,-1.55916,-0.473676,0.821323,1.1635,-0.887716,-1.956459,-0.889837,0.45616,-0.010355,0.274344,0.024415,-0.1692261460310436,-1.563065,-0.453694,0.833844,1.140141,-0.980809,-2.01831,-0.898808,0.438288,-0.006949,0.311008,0.039174,-0.149821460310436,-1.568146,-0.433265,0.845749,1.078366,-1.03958,-2.065652,-0.907597,0.419836,-0.002405,0.344563,0.060907,-0.1386011460310436,-1.574018,-0.412513,0.856797,0.994256,-1.049159,-2.100525,-0.916112,0.400913,0.002951,0.375935,0.083691,-0.1359931460310436,-1.580236,-0.391528,0.866931,0.903851,-1.016033,-2.130243,-0.924286,0.381601,0.008725,0.404312,0.110357,-0.1414151460310436,-1.586295,-0.370309,0.876071,0.803988,-0.927392,-2.153806,-0.932104,0.361903,0.014448,0.438146,0.142384,-0.1386091460310436,-1.591732,-0.349234,0.884148,0.694297,-0.804309,-2.130577,-0.939429,0.342178,0.019671,0.465873,0.17215,-0.141391460310436,-1.596214,-0.328417,0.891096,0.58375,-0.638624,-2.116027,-0.946249,0.322545,0.024056,0.49262,0.213314,-0.1419611460310436,-1.598788,-0.307573,0.897119,0.499176,-0.382403,-2.106863,-0.952698,0.302746,0.026675,0.52829,0.262363,-0.1155111460310436,-1.599877,-0.287789,0.901862,0.364251,-0.21802,-1.96973,-0.958468,0.283833,0.027881,0.552935,0.277553,-0.1250951460310436,-1.600223,-0.269291,0.905398,0.270899,-0.105042,-1.849163,-0.963542,0.266049,0.028362,0.56512,0.316349,-0.128491460310436,-1.60011,-0.25187,0.908419,0.234975,-0.063699,-1.733217,-0.968032,0.249215,0.028385,0.589446,0.327857,-0.1297791460310436,-1.600228,-0.235904,0.911125,0.213496,-0.085071,-1.578516,-0.971882,0.233722,0.028613,0.603276,0.344738,-0.1459981460310436,-1.600789,-0.221462,0.913719,0.213302,-0.128907,-1.425697,-0.975139,0.219656,0.029255,0.612422,0.369913,-0.1379591460310436,-1.602024,-0.208452,0.916395,0.228036,-0.201649,-1.284406,-0.977875,0.206946,0.030546,0.613923,0.388834,-0.1347181460310436,-1.603991,-0.196963,0.919331,0.260789,-0.275401,-1.12587,-0.980125,0.195692,0.032547,0.613563,0.416689,-0.1259461460310436,-1.606523,-0.187299,0.922406,0.273123,-0.324378,-0.936622,-0.981884,0.186205,0.035094,0.611446,0.438489,-0.1204981460310436,-1.609303,-0.179623,0.925354,0.257746,-0.334811,-0.73492,-0.983182,0.178659,0.037877,0.606778,0.457648,-0.1119891460310436,-1.614886,-0.169915,0.929558,0.132412,-0.30016,-0.363474,-0.984641,0.169099,0.043441,0.55593,0.508605,-0.0956871460310436,-1.612121,-0.173888,0.927846,0.210469,-0.326009,-0.541029,-0.984079,0.173013,0.04069,0.587396,0.474631,-0.1004741460310436,-1.61737,-0.1676,0.930195,0.024616,-0.247618,-0.193734,-0.984919,0.166817,0.045904,0.523005,0.546471,-0.091941460310436,-1.619487,-0.166938,0.929494,-0.107739,-0.184306,-0.017834,-0.98493,0.166163,0.047994,0.491964,0.588017,-0.0949911460310436,-1.620992,-0.168125,0.927196,-0.261505,-0.085586,0.183398,-0.984658,0.167334,0.049467,0.458413,0.632745,-0.0977761460310436,-1.621522,-0.171523,0.923175,-0.421838,0.050726,0.425033,-0.984058,0.170683,0.04996,0.430744,0.65854,-0.1080051460310436,-1.620914,-0.177356,0.917699,-0.538466,0.190177,0.67665,-0.983078,0.176428,0.049311,0.412811,0.658686,-0.1324251460310436,-1.619278,-0.185472,0.911412,-0.589868,0.30689,0.902211,-0.981694,0.184411,0.047632,0.398336,0.636848,-0.1635831460310436,-1.616833,-0.195617,0.905022,-0.579272,0.384852,1.097465,-0.979889,0.194372,0.045143,0.377456,0.622538,-0.1881331460310436,-1.613886,-0.207498,0.898795,-0.557897,0.434887,1.265137,-0.977641,0.206012,0.042153,0.327998,0.657178,-0.1895221460310436,-1.610541,-0.221042,0.892347,-0.58777,0.488281,1.435555,-0.974899,0.219247,0.038767,0.270828,0.726249,-0.1678571460310436,-1.607017,-0.236528,0.885398,-0.632916,0.52061,1.641138,-0.97152,0.234329,0.035204,0.234124,0.769181,-0.1560691460310436,-1.603521,-0.254295,0.878015,-0.667667,0.534968,1.876764,-0.967323,0.251563,0.031666,0.200156,0.79699,-0.147131460310436,-1.600323,-0.274708,0.870349,-0.684663,0.519666,2.152141,-0.962085,0.271266,0.028416,0.162875,0.802343,-0.1546211460310436,-1.597532,-0.298004,0.862594,-0.680437,0.496927,2.441607,-0.955583,0.293613,0.025554,0.140565,0.772183,-0.1740531460310436,-1.591819,-0.352846,0.849079,-0.49192,0.526254,2.955683,-0.938186,0.345569,0.019726,0.104613,0.563259,-0.2108881460310436,-1.594882,-0.324169,0.855298,-0.614193,0.494245,2.726214,-0.947641,0.318521,0.022829,0.125024,0.684409,-0.1958641460310436,-1.588088,-0.38292,0.844607,-0.315421,0.539196,3.058619,-0.927439,0.373631,0.016039,0.073023,0.438625,-0.2207811460310436,-1.583724,-0.413188,0.842457,-0.095516,0.516113,3.046727,-0.915769,0.401531,0.011839,0.018048,0.346744,-0.2190541460310436,-1.578586,-0.442803,0.843079,0.149443,0.481833,2.960345,-0.903527,0.428474,0.007038,-0.034339,0.276193,-0.2034341460310436,-1.572611,-0.471149,0.846431,0.369156,0.443026,2.820368,-0.891046,0.45391,0.001617,-0.090659,0.232995,-0.162171460310436,-1.566024,-0.497944,0.851954,0.523817,0.390442,2.664918,-0.878556,0.47762,-0.004193,-0.140487,0.216578,-0.1085241460310436,-1.559163,-0.523242,0.858831,0.596204,0.340295,2.521555,-0.866145,0.499691,-0.010076,-0.192876,0.212238,-0.0556891460310436,-1.552576,-0.547284,0.865918,0.564822,0.286354,2.407195,-0.853799,0.52037,-0.015558,-0.242163,0.233429,-0.0282961460310436,-1.546725,-0.570407,0.872144,0.451097,0.253092,2.32302,-0.841437,0.539975,-0.020259,-0.294625,0.257816,-0.0074511460310436,-1.541441,-0.592823,0.876794,0.289459,0.287241,2.254238,-0.829009,0.558704,-0.024343,-0.342347,0.28445,0.014411460310436,-1.536226,-0.614746,0.879632,0.126837,0.394049,2.208718,-0.816432,0.576751,-0.028236,-0.379476,0.279725,0.0147011460310436,-1.524023,-0.657398,0.882346,0.019623,0.614312,2.084325,-0.790719,0.611059,-0.037012,-0.430701,0.167872,-0.0208041460310436,-1.530613,-0.636451,0.881066,0.012123,0.509389,2.184945,-0.803561,0.594345,-0.032307,-0.404005,0.228348,-0.0039471460310436,-1.51577,-0.676698,0.884411,0.078989,0.733524,1.904032,-0.778465,0.626222,-0.04288,-0.444252,0.104033,-0.0272351460310436,-1.505809,-0.693739,0.887216,0.125993,0.856664,1.663826,-0.767238,0.639416,-0.049931,-0.443563,0.018375,-0.0230211460310436,-1.494224,-0.707835,0.890295,0.137309,1.0104,1.35488,-0.757545,0.650191,-0.058121,-0.42019,-0.043959,0.0005041460310436,-1.480979,-0.718899,0.892945,0.095326,1.213421,1.0592,-0.749498,0.658557,-0.0675,-0.36975,-0.092135,0.0319771460310436,-1.451081,-0.735084,0.894701,-0.088822,1.560476,0.71166,-0.736465,0.67065,-0.08859,-0.212754,-0.163081,0.1183451460310436,-1.466387,-0.727701,0.894481,0.005775,1.41923,0.847449,-0.742639,0.665155,-0.077822,-0.297796,-0.12536,0.0763411460310436,-1.435676,-0.741747,0.893875,-0.166073,1.618939,0.646744,-0.730569,0.675577,-0.09932,-0.130637,-0.197778,0.149431460310436,-1.420901,-0.748279,0.892313,-0.220543,1.58383,0.635695,-0.724643,0.680379,-0.109441,-0.057614,-0.227376,0.1737571460310436,-1.4074,-0.755042,0.890257,-0.268047,1.472121,0.655906,-0.718543,0.685319,-0.118464,-0.000207,-0.266145,0.1899361460310436,-1.395728,-0.762145,0.887742,-0.313625,1.309249,0.680559,-0.7123,0.690475,-0.125991,0.039067,-0.302383,0.1996611460310436,-1.386134,-0.769457,0.884831,-0.348469,1.125974,0.687217,-0.706077,0.695745,-0.131888,0.058783,-0.33373,0.1983861460310436,-1.378342,-0.776638,0.881633,-0.369056,0.978696,0.658654,-0.700105,0.700886,-0.136427,0.058732,-0.362537,0.1956311460310436,-1.371963,-0.783437,0.877789,-0.418038,0.901722,0.605072,-0.694533,0.705719,-0.139946,0.053985,-0.379745,0.1924971460310436,-1.36661,-0.789862,0.87285,-0.49667,0.895215,0.552086,-0.68932,0.710256,-0.142739,0.049442,-0.395773,0.1927261460310436,-1.362066,-0.796074,0.866453,-0.5966,0.929366,0.511604,-0.684334,0.714615,-0.144953,0.045662,-0.407975,0.1874791460310436,-1.357951,-0.802187,0.858712,-0.680499,0.991265,0.481856,-0.679449,0.718878,-0.146842,0.03736,-0.41239,0.1832651460310436,-1.350309,-0.814374,0.839585,-0.839839,1.136499,0.443722,-0.669708,0.727296,-0.150102,0.008713,-0.409135,0.155841460310436,-1.35404,-0.808269,0.849736,-0.763356,1.066017,0.461687,-0.674587,0.723093,-0.148555,0.021816,-0.411981,0.1714591460310436,-1.346762,-0.820419,0.828544,-0.885437,1.178079,0.421844,-0.664873,0.731432,-0.151498,-0.018324,-0.396608,0.1454091460310436,-1.343452,-0.826282,0.817292,-0.877873,1.155519,0.398488,-0.660179,0.735417,-0.152728,-0.04554,-0.381367,0.128681460310436,-1.340483,-0.831825,0.80653,-0.824579,1.076291,0.371431,-0.655744,0.739162,-0.153755,-0.073077,-0.366664,0.1165691460310436,-1.337963,-0.836988,0.796661,-0.751138,0.962898,0.346789,-0.651631,0.74263,-0.154524,-0.098414,-0.351944,0.1092361460310436,-1.335815,-0.841732,0.78781,-0.671256,0.855873,0.320048,-0.647865,0.745798,-0.155101,-0.118874,-0.349192,0.1099661460310436,-1.333771,-0.845962,0.780007,-0.585862,0.77649,0.282595,-0.644474,0.748609,-0.155683,-0.142391,-0.350919,0.1099681460310436,-1.331481,-0.849562,0.77335,-0.492837,0.722619,0.235521,-0.641494,0.750991,-0.156519,-0.164887,-0.356262,0.1094451460310436,-1.328594,-0.852398,0.768034,-0.383673,0.685706,0.178926,-0.638969,0.752861,-0.157858,-0.181863,-0.365181,0.1113651460310436,-1.32495,-0.854399,0.764234,-0.261695,0.645545,0.120318,-0.636927,0.754176,-0.159819,-0.190923,-0.369029,0.1154311460310436,-1.320499,-0.855586,0.762254,-0.121731,0.581941,0.072615,-0.635341,0.754956,-0.162431,-0.204396,-0.358914,0.1262671460310436,-1.315438,-0.856078,0.762196,0.018036,0.4907,0.038875,-0.634152,0.755278,-0.16555,-0.217654,-0.340055,0.148171460310436,-1.310168,-0.855918,0.763873,0.139579,0.372837,0.002921,-0.633388,0.755173,-0.168921,-0.234777,-0.318131,0.1707831460310437,-1.305338,-0.855193,0.766702,0.215153,0.239118,-0.03125,-0.633092,0.754698,-0.172122,-0.250651,-0.292936,0.1963531460310437,-1.301461,-0.854067,0.769858,0.232041,0.124794,-0.059586,-0.633239,0.753958,-0.174801,-0.275697,-0.256857,0.2264521460310437,-1.298819,-0.85289,0.772556,0.191247,0.042751,-0.067168,-0.633629,0.753184,-0.176711,-0.312141,-0.211833,0.2439881460310437,-1.297554,-0.851959,0.774288,0.115164,-0.017748,-0.055903,-0.63408,0.752572,-0.177702,-0.344237,-0.163018,0.2501971460310437,-1.297614,-0.851278,0.774954,0.044526,-0.069798,-0.055294,-0.634584,0.752123,-0.177803,-0.380141,-0.107699,0.2458261460310437,-1.298997,-0.850656,0.774659,-0.016424,-0.133711,-0.071648,-0.63528,0.751713,-0.17705,-0.428975,-0.051823,0.2256641460310437,-1.301719,-0.849879,0.773427,-0.072953,-0.194556,-0.107193,-0.636323,0.7512,-0.175475,-0.474578,-0.015452,0.1957391460310437,-1.30552,-0.848864,0.771069,-0.143118,-0.204233,-0.151554,-0.63772,0.75053,-0.173255,-0.507086,0.005055,0.1579971460310437,-1.309936,-0.847587,0.767438,-0.218384,-0.155273,-0.200407,-0.639405,0.749685,-0.170685,-0.520553,-0.006231,0.1238251460310437,-1.314438,-0.84578,0.762611,-0.278329,-0.067107,-0.282346,-0.641476,0.748488,-0.168148,-0.514728,-0.038955,0.0874131460310437,-1.31914,-0.842858,0.756737,-0.31346,-0.027366,-0.423716,-0.644375,0.746547,-0.165673,-0.530979,-0.038372,0.0395751460310437,-1.324644,-0.838254,0.750287,-0.299593,-0.092486,-0.600644,-0.648603,0.743477,-0.16296,-0.581224,0.054726,0.0013541460310437,-1.330866,-0.832192,0.74436,-0.217017,-0.217111,-0.712727,-0.653971,0.739409,-0.159989,-0.65447,0.215776,-0.0236661460310437,-1.336618,-0.825464,0.740488,-0.050812,-0.314631,-0.715253,-0.659704,0.734863,-0.157376,-0.701975,0.351258,-0.037861460310437,-1.340609,-0.818792,0.739957,0.177956,-0.375602,-0.642601,-0.665087,0.730321,-0.155857,-0.69319,0.397609,-0.046781460310437,-1.342248,-0.812199,0.742847,0.395388,-0.373787,-0.595864,-0.670016,0.725802,-0.155854,-0.636167,0.29791,-0.0509481460310437,-1.34226,-0.804946,0.747654,0.514447,-0.341456,-0.658989,-0.675127,0.720793,-0.157035,-0.558042,0.121019,-0.0339291460310437,-1.341555,-0.796255,0.752758,0.556384,-0.284997,-0.821091,-0.681092,0.714742,-0.158928,-0.475326,-0.06255,-0.0144271460310437,-1.34111,-0.785047,0.75719,0.563831,-0.275066,-1.107213,-0.688778,0.706859,-0.161045,-0.408954,-0.196635,0.0060761460310437,-1.341879,-0.77062,0.760447,0.55442,-0.321964,-1.450968,-0.698762,0.69658,-0.162813,-0.364486,-0.241563,0.0234091460310437,-1.344372,-0.753146,0.762272,0.515827,-0.399486,-1.75965,-0.71092,0.683937,-0.163778,-0.331393,-0.203285,0.0395861460310437,-1.348717,-0.733517,0.762599,0.44449,-0.483785,-1.972499,-0.724582,0.669486,-0.163613,-0.303067,-0.088325,0.0550621460310437,-1.355043,-0.712651,0.761586,0.361704,-0.603752,-2.095649,-0.739089,0.653842,-0.161982,-0.281648,0.071408,0.0602371460310437,-1.363214,-0.691572,0.759665,0.283405,-0.727278,-2.103432,-0.753709,0.637749,-0.158744,-0.267516,0.239341,0.0464391460310437,-1.372479,-0.671486,0.757349,0.215011,-0.803111,-1.982076,-0.767552,0.62215,-0.154247,-0.254054,0.390896,0.0260881460310437,-1.382215,-0.653398,0.755065,0.160989,-0.853892,-1.769912,-0.779946,0.607888,-0.148852,-0.218712,0.481849,-0.0037971460310437,-1.392049,-0.637479,0.753169,0.140115,-0.881286,-1.554326,-0.790795,0.595171,-0.142877,-0.173225,0.509061,-0.0419981460310437,-1.401487,-0.623294,0.751969,0.157079,-0.878177,-1.389754,-0.80035,0.583713,-0.136817,-0.140431,0.48077,-0.0740751460310437,-1.418335,-0.597282,0.751877,0.243946,-0.823302,-1.27171,-0.817276,0.562397,-0.125577,-0.102783,0.353176,-0.1342491460310437,-1.410292,-0.610124,0.751526,0.192781,-0.856378,-1.297682,-0.809043,0.572969,-0.130982,-0.122857,0.428679,-0.1055451460310437,-1.425664,-0.584133,0.752923,0.295601,-0.78958,-1.313003,-0.82542,0.551477,-0.120643,-0.080357,0.278708,-0.1542741460310437,-1.432256,-0.570183,0.7545,0.342288,-0.736909,-1.39604,-0.833737,0.539786,-0.116251,-0.053013,0.20794,-0.162131460310437,-1.438041,-0.555322,0.756558,0.389017,-0.681065,-1.483357,-0.842254,0.527217,-0.112475,-0.020219,0.153356,-0.1627781460310437,-1.443104,-0.53955,0.759164,0.445304,-0.63911,-1.570548,-0.850955,0.51375,-0.109255,0.018725,0.119154,-0.1580631460310437,-1.447633,-0.522835,0.762629,0.534527,-0.636687,-1.655197,-0.859844,0.499338,-0.10644,0.061367,0.096945,-0.1557821460310437,-1.451918,-0.505194,0.767358,0.661996,-0.679135,-1.736173,-0.868904,0.483978,-0.103783,0.106194,0.088502,-0.1510231460310437,-1.456254,-0.486689,0.773533,0.793538,-0.753512,-1.805271,-0.878094,0.467702,-0.101021,0.149502,0.08108,-0.1423111460310437,-1.460893,-0.46753,0.780884,0.895092,-0.82558,-1.85969,-0.887298,0.450683,-0.097911,0.202942,0.076631,-0.124471460310437,-1.465898,-0.447884,0.789095,0.96776,-0.885747,-1.899449,-0.896411,0.433059,-0.094379,0.245959,0.075776,-0.1044131460310437,-1.471333,-0.427883,0.797804,1.005209,-0.930848,-1.933153,-0.905349,0.414946,-0.090347,0.287872,0.077608,-0.0846411460310437,-1.477196,-0.407616,0.806664,1.007468,-0.959838,-1.96401,-0.91405,0.396422,-0.085806,0.344393,0.070665,-0.0428561460310437,-1.483569,-0.387058,0.815249,0.972443,-0.982374,-2.002687,-0.922503,0.377466,-0.080672,0.371477,0.086111,-0.0272991460310437,-1.49039,-0.36637,0.823266,0.906369,-0.985491,-2.01927,-0.930617,0.358229,-0.074989,0.398452,0.106859,-0.0105361460310437,-1.497559,-0.345747,0.830418,0.808229,-0.9703,-2.02124,-0.9383,0.3389,-0.068842,0.421943,0.129255,-0.0102751460310437,-1.504966,-0.325305,0.83658,0.701514,-0.945428,-2.013704,-0.945501,0.319598,-0.062333,0.441671,0.151136,-0.0102381460310437,-1.512558,-0.305122,0.841749,0.593642,-0.921546,-1.99443,-0.952193,0.30041,-0.055517,0.466781,0.174871,-0.0202581460310437,-1.520146,-0.285342,0.845946,0.485748,-0.875185,-1.961344,-0.958335,0.281486,-0.048582,0.490394,0.205575,-0.0244621460310437,-1.527466,-0.266092,0.849162,0.375656,-0.81165,-1.911245,-0.9639,0.262963,-0.041792,0.506915,0.234183,-0.038561460310437,-1.534429,-0.247539,0.85151,0.280387,-0.744844,-1.842875,-0.968877,0.245019,-0.035251,0.528249,0.262321,-0.0490841460310437,-1.540835,-0.229725,0.853076,0.191586,-0.662067,-1.775564,-0.973292,0.227709,-0.02917,0.544291,0.301725,-0.0570881460310437,-1.54623,-0.212613,0.853971,0.116774,-0.527019,-1.69868,-0.977188,0.211015,-0.024011,0.567108,0.331435,-0.0481021460310437,-1.550622,-0.196884,0.854119,0.027403,-0.425569,-1.543875,-0.980481,0.195614,-0.019783,0.579068,0.361118,-0.0698771460310437,-1.554477,-0.182764,0.853647,-0.032242,-0.363635,-1.385489,-0.983214,0.181748,-0.016047,0.588378,0.395309,-0.0706231460310437,-1.557829,-0.170299,0.852935,-0.057882,-0.316636,-1.212879,-0.985451,0.169477,-0.01278,0.589577,0.413897,-0.0804211460310437,-1.5608,-0.159711,0.852129,-0.069813,-0.274881,-1.019847,-0.987224,0.159032,-0.009869,0.581203,0.431483,-0.085561460310437,-1.565707,-0.143937,0.850385,-0.098807,-0.210784,-0.67114,-0.989646,0.143441,-0.005036,0.553672,0.475333,-0.0733791460310437,-1.563392,-0.150981,0.851332,-0.073168,-0.242807,-0.836321,-0.988597,0.150408,-0.007321,0.571467,0.444944,-0.0868721460310437,-1.567714,-0.13846,0.848922,-0.161732,-0.171234,-0.512715,-0.990425,0.138018,-0.003053,0.526207,0.507566,-0.069641460310437,-1.569347,-0.134603,0.846603,-0.256692,-0.11982,-0.34713,-0.990954,0.134196,-0.001436,0.499697,0.542424,-0.0619791460310437,-1.570601,-0.132478,0.843166,-0.37309,-0.067201,-0.168923,-0.991238,0.132091,-0.000194,0.472515,0.57671,-0.0692191460310437,-1.57131,-0.132259,0.838465,-0.503394,0.01436,0.027227,-0.991266,0.131873,0.000509,0.445872,0.610497,-0.0696161460310437,-1.571175,-0.134076,0.832417,-0.637986,0.121617,0.23821,-0.991025,0.133674,0.000375,0.429639,0.619972,-0.0856111460310437,-1.570103,-0.138139,0.825335,-0.725733,0.232058,0.467744,-0.990474,0.1377,-0.000687,0.419841,0.605571,-0.1076351460310437,-1.568125,-0.144499,0.817887,-0.745214,0.32631,0.696855,-0.989575,0.143997,-0.002643,0.417126,0.569336,-0.133741460310437,-1.563282,-0.162776,0.804035,-0.679189,0.343069,1.020908,-0.986753,0.162058,-0.007414,0.280668,0.681005,-0.1190351460310437,-1.565653,-0.152909,0.810782,-0.698471,0.358307,0.890428,-0.988319,0.152314,-0.005083,0.376274,0.566421,-0.1450641460310437,-1.560888,-0.174029,0.796685,-0.769816,0.379443,1.17056,-0.984847,0.173152,-0.009758,0.202559,0.797459,-0.0769271460310437,-1.557889,-0.187404,0.787953,-0.920558,0.489004,1.401682,-0.982409,0.186309,-0.012681,0.147677,0.898118,-0.0391531460310437,-1.554373,-0.203724,0.777713,-1.074124,0.574564,1.716137,-0.979188,0.202318,-0.016083,0.108216,0.945052,-0.0476081460310437,-1.550794,-0.223925,0.766511,-1.154912,0.605059,2.125355,-0.974838,0.222058,-0.019502,0.093887,0.927539,-0.0656731460310437,-1.547639,-0.248583,0.755745,-1.078322,0.55114,2.577845,-0.969002,0.24603,-0.022444,0.098229,0.795016,-0.1231861460310437,-1.545362,-0.277388,0.747226,-0.830842,0.416445,2.978682,-0.961463,0.273845,-0.024459,0.087256,0.601781,-0.1664891460310437,-1.543722,-0.308985,0.741992,-0.505325,0.285865,3.218957,-0.952293,0.304092,-0.025789,0.03405,0.424652,-0.173751460310437,-1.542064,-0.341243,0.740343,-0.164196,0.201881,3.242475,-0.941951,0.334658,-0.027072,-0.029836,0.270703,-0.1572691460310437,-1.539791,-0.372459,0.741832,0.109925,0.170435,3.110425,-0.930988,0.363907,-0.028874,-0.123791,0.189728,-0.1187541460310437,-1.536548,-0.401548,0.745557,0.291005,0.196236,2.882361,-0.919917,0.390844,-0.031518,-0.227223,0.169596,-0.0583111460310437,-1.532104,-0.427935,0.750398,0.35946,0.271099,2.605117,-0.909144,0.414993,-0.035194,-0.320349,0.19545,-0.0048141460310437,-1.526909,-0.4516,0.755173,0.319971,0.331402,2.33872,-0.898883,0.436406,-0.039475,-0.412548,0.261043,0.042741460310437,-1.521925,-0.473082,0.758706,0.175277,0.344381,2.131343,-0.889105,0.455632,-0.043487,-0.484857,0.339702,0.0741261460310437,-1.517913,-0.493031,0.759937,-0.052034,0.349411,1.980925,-0.879671,0.473298,-0.046564,-0.530638,0.396713,0.0859471460310437,-1.514786,-0.511912,0.758551,-0.279486,0.39733,1.86775,-0.870443,0.489845,-0.048805,-0.547908,0.383706,0.0720591460310437,-1.511864,-0.529756,0.755059,-0.443736,0.49836,1.749626,-0.861432,0.505323,-0.050825,-0.53699,0.307055,0.039611460310437,-1.508547,-0.546445,0.750312,-0.526753,0.606558,1.620445,-0.852723,0.519653,-0.05315,-0.512695,0.196381,0.0009651460310437,-1.5042,-0.561279,0.745143,-0.541749,0.754546,1.404181,-0.844699,0.532269,-0.056337,-0.466291,0.089817,-0.0046221460310437,-1.498074,-0.573538,0.73946,-0.580584,0.986482,1.129796,-0.837766,0.542608,-0.061032,-0.394152,-0.018087,0.0032931460310437,-1.490113,-0.583021,0.732762,-0.65765,1.234399,0.83581,-0.832087,0.550549,-0.067281,-0.315251,-0.100369,0.0071161460310437,-1.48033,-0.589681,0.724691,-0.760221,1.507958,0.53832,-0.827719,0.556096,-0.075085,-0.222741,-0.137837,0.0259831460310437,-1.468741,-0.593969,0.715171,-0.855805,1.764801,0.299669,-0.824414,0.559655,-0.084429,-0.116382,-0.162285,0.0386071460310437,-1.455786,-0.596605,0.704711,-0.906298,1.934512,0.131078,-0.821783,0.561837,-0.094933,-0.0124,-0.187753,0.050881460310437,-1.442048,-0.598085,0.693882,-0.912644,2.010569,0.012272,-0.819575,0.563061,-0.106106,0.081294,-0.192898,0.0678371460310437,-1.428326,-0.598976,0.683456,-0.854855,1.953596,-0.0351,-0.817545,0.563797,-0.11727,0.165965,-0.221466,0.0764221460310437,-1.415437,-0.599753,0.67412,-0.752966,1.782689,-0.035829,-0.815533,0.564439,-0.12773,0.228634,-0.234986,0.0875531460310437,-1.403963,-0.600634,0.66616,-0.640808,1.548998,-0.010653,-0.813523,0.565166,-0.136996,0.27385,-0.246974,0.0988041460310437,-1.394369,-0.601834,0.659514,-0.54282,1.278165,0.036935,-0.811503,0.566155,-0.144676,0.302317,-0.261956,0.1142341460310437,-1.386911,-0.603514,0.653847,-0.482268,1.011778,0.096996,-0.809465,0.567539,-0.15055,0.325502,-0.272175,0.1303161460310437,-1.381531,-0.605826,0.648525,-0.480301,0.797857,0.164929,-0.807353,0.569441,-0.154655,0.336695,-0.271468,0.1491921460310437,-1.377948,-0.609004,0.642944,-0.529459,0.649222,0.248235,-0.805013,0.572051,-0.157199,0.334875,-0.267898,0.1567261460310437,-1.375769,-0.613199,0.636666,-0.612584,0.56576,0.336385,-0.802307,0.575487,-0.158487,0.327622,-0.261125,0.1580591460310437,-1.37454,-0.618365,0.629484,-0.705056,0.538787,0.415741,-0.799185,0.579704,-0.15889,0.316626,-0.250755,0.151491460310437,-1.373823,-0.624519,0.621259,-0.80909,0.565169,0.495903,-0.795558,0.584707,-0.158762,0.291011,-0.236792,0.1375371460310438,-1.373176,-0.631625,0.611942,-0.908676,0.636305,0.572764,-0.791361,0.590457,-0.158457,0.260858,-0.217776,0.1199741460310438,-1.372255,-0.639635,0.601915,-0.969832,0.710542,0.65102,-0.786553,0.596902,-0.158248,0.229988,-0.207605,0.1058191460310438,-1.37107,-0.648474,0.591673,-0.98737,0.74521,0.730843,-0.781163,0.603971,-0.158127,0.196446,-0.198545,0.0773161460310438,-1.369773,-0.65804,0.581801,-0.954885,0.727458,0.805922,-0.77526,0.611567,-0.157979,0.157478,-0.194804,0.0464371460310438,-1.368503,-0.668034,0.572876,-0.875405,0.664631,0.855922,-0.769033,0.619444,-0.157728,0.11498,-0.19737,0.0200781460310438,-1.367346,-0.678198,0.565146,-0.780922,0.58139,0.887963,-0.762644,0.62739,-0.157337,0.074549,-0.19401,0.0039251460310438,-1.366342,-0.68838,0.558604,-0.686323,0.500188,0.905051,-0.756191,0.635287,-0.156798,0.031643,-0.199832,-0.0027031460310438,-1.365203,-0.698408,0.553184,-0.595735,0.45514,0.903842,-0.749738,0.642999,-0.15635,-0.0069,-0.198083,-0.0012881460310438,-1.363636,-0.708216,0.548787,-0.513518,0.445264,0.896047,-0.743284,0.65048,-0.15622,-0.043276,-0.204832,-0.001771460310438,-1.36138,-0.717709,0.545426,-0.426894,0.452371,0.877562,-0.736857,0.65766,-0.156606,-0.078085,-0.214087,-0.0021921460310438,-1.358251,-0.726694,0.543091,-0.342187,0.479618,0.838712,-0.730557,0.664402,-0.157657,-0.110477,-0.217259,0.0117071460310438,-1.354237,-0.735106,0.541687,-0.263865,0.503657,0.795545,-0.724434,0.670665,-0.159383,-0.139259,-0.220073,0.0288291460310438,-1.349676,-0.743088,0.54122,-0.192265,0.483067,0.774877,-0.718454,0.676565,-0.161505,-0.164466,-0.222403,0.0428531460310438,-1.345032,-0.750636,0.54178,-0.104749,0.409037,0.741696,-0.712699,0.682104,-0.163692,-0.205255,-0.208166,0.0534021460310438,-1.340625,-0.757514,0.543343,-0.027842,0.311451,0.688208,-0.707385,0.687118,-0.165757,-0.244717,-0.179961,0.0710771460310438,-1.336897,-0.763827,0.545319,-0.002205,0.217244,0.640668,-0.702529,0.69169,-0.167385,-0.291444,-0.135461,0.0894431460310438,-1.334074,-0.769744,0.547017,-0.028831,0.149886,0.600065,-0.698063,0.695951,-0.168405,-0.340451,-0.074598,0.1051261460310438,-1.332213,-0.77553,0.548024,-0.080073,0.108319,0.580524,-0.693824,0.700095,-0.168749,-0.384851,-0.023627,0.1107651460310438,-1.330811,-0.78145,0.548376,-0.128123,0.125579,0.59073,-0.689549,0.704309,-0.168733,-0.420635,0.000571,0.1085681460310438,-1.329051,-0.787592,0.548468,-0.142958,0.187561,0.605362,-0.685037,0.708657,-0.168908,-0.432532,-0.031227,0.0932241460310438,-1.326884,-0.79355,0.548471,-0.146858,0.222548,0.571054,-0.68056,0.712848,-0.169369,-0.434079,-0.090304,0.0741091460310438,-1.325472,-0.798873,0.54777,-0.193354,0.177352,0.484297,-0.67663,0.71657,-0.169406,-0.483892,-0.085864,0.0522341460310438,-1.325951,-0.803373,0.545566,-0.283586,0.091609,0.373792,-0.673576,0.719702,-0.168299,-0.568718,-0.003226,0.0293521460310438,-1.328238,-0.8071,0.541666,-0.375929,0.043286,0.278103,-0.67135,0.722285,-0.166112,-0.666876,0.122762,0.0210931460310438,-1.331158,-0.810303,0.537047,-0.381937,0.048309,0.225715,-0.669582,0.724496,-0.163602,-0.714832,0.179587,-0.0113561460310438,-1.332588,-0.812937,0.533888,-0.225717,0.101032,0.200225,-0.667959,0.726309,-0.162192,-0.706797,0.132837,-0.0391171460310438,-1.331146,-0.814614,0.534155,0.050111,0.128774,0.155566,-0.66654,0.727461,-0.162866,-0.674143,0.037126,-0.0575471460310438,-1.327119,-0.814859,0.538291,0.345238,0.087939,0.066438,-0.665706,0.727629,-0.165507,-0.62914,-0.081022,-0.0585991460310438,-1.321924,-0.813011,0.545512,0.584102,-0.043919,-0.109393,-0.666139,0.72636,-0.169293,-0.594787,-0.178982,-0.026371460310438,-1.317824,-0.80835,0.553816,0.696426,-0.244292,-0.385421,-0.66871,0.723149,-0.172868,-0.576362,-0.214237,0.006091460310438,-1.316203,-0.800673,0.561508,0.715027,-0.444587,-0.691096,-0.673781,0.717825,-0.175345,-0.571412,-0.19628,0.0379091460310438,-1.317494,-0.79025,0.5677,0.674849,-0.618989,-0.97494,-0.681214,0.710529,-0.176341,-0.573486,-0.114826,0.05631460310438,-1.321813,-0.777781,0.572007,0.586178,-0.785375,-1.191962,-0.690502,0.701701,-0.175567,-0.564701,0.005361,0.0566551460310438,-1.3292,-0.764086,0.574328,0.468111,-0.947978,-1.328104,-0.701045,0.691878,-0.172744,-0.557087,0.144334,0.0316311460310438,-1.338887,-0.749873,0.57487,0.342366,-1.028026,-1.396227,-0.712185,0.681546,-0.168189,-0.545002,0.274356,0.0114961460310438,-1.349605,-0.735998,0.573929,0.216264,-1.006161,-1.366429,-0.723104,0.671327,-0.162605,-0.519205,0.36743,-0.0196771460310438,-1.360094,-0.723054,0.572197,0.135889,-0.915824,-1.279848,-0.733206,0.661678,-0.156815,-0.468988,0.400395,-0.0692441460310438,-1.369395,-0.711159,0.570477,0.115291,-0.789289,-1.175771,-0.742293,0.652712,-0.151554,-0.410509,0.37425,-0.1116911460310438,-1.376787,-0.700066,0.569282,0.138789,-0.625725,-1.099184,-0.750451,0.644268,-0.147449,-0.337592,0.300114,-0.136731460310438,-1.382202,-0.68924,0.569012,0.208413,-0.503128,-1.073321,-0.758046,0.635951,-0.144683,-0.272273,0.21018,-0.1622941460310438,-1.386098,-0.677969,0.570129,0.33164,-0.457885,-1.116161,-0.765601,0.627212,-0.143036,-0.221215,0.12027,-0.1834411460310438,-1.38896,-0.665397,0.573061,0.503249,-0.481526,-1.239519,-0.773702,0.617372,-0.142258,-0.16656,0.047851,-0.1911161460310438,-1.39112,-0.650983,0.577968,0.695323,-0.534259,-1.402117,-0.782682,0.605969,-0.142162,-0.11487,-0.00642,-0.1838721460310438,-1.392797,-0.634545,0.58491,0.898046,-0.609462,-1.572028,-0.792617,0.592811,-0.142594,-0.058976,-0.030341,-0.1696311460310438,-1.394222,-0.61644,0.593955,1.099288,-0.701416,-1.692785,-0.803255,0.578134,-0.143327,0.006624,-0.0505,-0.1524191460310438,-1.39554,-0.597206,0.604834,1.268262,-0.774889,-1.77117,-0.814243,0.562335,-0.14418,0.069813,-0.052355,-0.1189271460310438,-1.396758,-0.577119,0.617154,1.404078,-0.821472,-1.827502,-0.825378,0.545612,-0.145116,0.119918,-0.046421,-0.0873221460310438,-1.397981,-0.556467,0.630674,1.519451,-0.865721,-1.86053,-0.836478,0.52819,-0.146013,0.168204,-0.050941,-0.0646191460310438,-1.39944,-0.535436,0.64496,1.592081,-0.903395,-1.88434,-0.84745,0.510216,-0.146654,0.211846,-0.051109,-0.0393351460310438,-1.401335,-0.514166,0.659466,1.614554,-0.931314,-1.905415,-0.858231,0.491808,-0.146845,0.247193,-0.046984,-0.012671460310438,-1.40391,-0.492737,0.673695,1.594323,-0.95911,-1.925794,-0.868801,0.473039,-0.146353,0.279644,-0.047868,0.0083221460310438,-1.407326,-0.471208,0.687257,1.535681,-0.984674,-1.947583,-0.879142,0.453963,-0.145007,0.312019,-0.043715,0.0285831460310438,-1.411665,-0.449669,0.69978,1.440751,-1.002654,-1.966509,-0.889212,0.434667,-0.142709,0.336447,-0.028021,0.043131460310438,-1.41689,-0.428184,0.711015,1.319162,-1.010957,-1.984628,-0.898968,0.415219,-0.139459,0.35542,-0.00546,0.050151460310438,-1.422897,-0.406698,0.720796,1.182789,-1.000105,-2.015748,-0.908405,0.395579,-0.135341,0.373234,0.026403,0.0477861460310438,-1.42921,-0.385319,0.729164,1.046357,-0.94856,-2.01923,-0.917406,0.375855,-0.130767,0.39438,0.057342,0.0484761460310438,-1.435663,-0.364365,0.73617,0.910791,-0.898983,-1.996004,-0.925832,0.356356,-0.125878,0.41036,0.090406,0.0341571460310438,-1.442067,-0.343899,0.742082,0.797632,-0.834486,-1.964087,-0.933658,0.33716,-0.120858,0.427813,0.123838,0.0179071460310438,-1.448089,-0.323974,0.747046,0.697306,-0.749725,-1.925712,-0.94085,0.318337,-0.116032,0.442238,0.163246,0.0026441460310438,-1.453393,-0.304409,0.751256,0.617487,-0.633128,-1.903271,-0.947457,0.299729,-0.111749,0.457207,0.2117,-0.011681460310438,-1.45779,-0.285672,0.754718,0.522217,-0.52247,-1.813678,-0.953353,0.281802,-0.108196,0.48236,0.23396,-0.0091441460310438,-1.461881,-0.268058,0.757341,0.429859,-0.476813,-1.715322,-0.958573,0.264859,-0.104819,0.50113,0.262256,-0.031871460310438,-1.465843,-0.251429,0.759495,0.375876,-0.450469,-1.618707,-0.963228,0.248789,-0.101467,0.515566,0.294928,-0.0421031460310438,-1.46981,-0.23607,0.761291,0.321587,-0.443112,-1.488938,-0.967311,0.233883,-0.098019,0.529811,0.315479,-0.0600321460310438,-1.473753,-0.222036,0.762825,0.28123,-0.428355,-1.36334,-0.970861,0.220216,-0.094513,0.53443,0.342238,-0.0700381460310438,-1.477576,-0.209237,0.764207,0.250519,-0.411519,-1.241936,-0.973943,0.207713,-0.091055,0.538167,0.370244,-0.0715421460310438,-1.481296,-0.197716,0.765376,0.209079,-0.394608,-1.113151,-0.976593,0.19643,-0.087639,0.540726,0.397686,-0.0782541460310438,-1.484748,-0.187669,0.766107,0.140909,-0.348705,-0.9644,-0.978807,0.186569,-0.084433,0.534181,0.435821,-0.0744261460310438,-1.487759,-0.179295,0.766004,0.032121,-0.28553,-0.800039,-0.980579,0.178336,-0.081612,0.527042,0.480355,-0.068291460310438,-1.49024,-0.17288,0.764794,-0.100344,-0.209288,-0.602824,-0.981899,0.17202,-0.07927,0.516597,0.526268,-0.0679771460310438,-1.492016,-0.168705,0.762426,-0.23611,-0.11477,-0.383271,-0.982745,0.167906,-0.077581,0.491275,0.569597,-0.0718481460310438,-1.492991,-0.166894,0.758793,-0.382621,-0.011606,-0.149956,-0.983122,0.16612,-0.076647,0.47238,0.617724,-0.0704321460310438,-1.493105,-0.167627,0.754012,-0.508956,0.094802,0.09954,-0.983009,0.166843,-0.076526,0.451759,0.630154,-0.0839051460310438,-1.492461,-0.170856,0.748563,-0.579821,0.175419,0.342125,-0.982418,0.170026,-0.077116,0.445323,0.62105,-0.1016721460310438,-1.491242,-0.176388,0.743158,-0.572741,0.227991,0.56839,-0.98137,0.175475,-0.078237,0.434602,0.583665,-0.1287491460310438,-1.489585,-0.183896,0.738566,-0.489748,0.254576,0.765499,-0.979898,0.182861,-0.079754,0.41659,0.536209,-0.1456481460310438,-1.487981,-0.192859,0.735121,-0.393749,0.211436,0.902072,-0.978097,0.191665,-0.081187,0.368645,0.523407,-0.1525161460310438,-1.487022,-0.202811,0.731734,-0.443745,0.152449,0.996844,-0.976069,0.201423,-0.081962,0.253535,0.634041,-0.1242911460310438,-1.484854,-0.228062,0.718994,-0.932709,0.370687,1.404068,-0.970511,0.22609,-0.083614,0.103629,0.908202,-0.0261881460310438,-1.486382,-0.214205,0.726605,-0.662433,0.194499,1.144293,-0.973666,0.212571,-0.082387,0.147891,0.80838,-0.080471460310438,-1.481907,-0.245655,0.709398,-1.133331,0.571966,1.786098,-0.966149,0.243192,-0.086107,0.084069,0.921588,-0.0524581460310438,-1.478058,-0.267459,0.699646,-1.130793,0.641762,2.208735,-0.960301,0.264282,-0.089313,0.10587,0.840363,-0.1011631460310438,-1.474657,-0.292872,0.692194,-0.884052,0.507857,2.564718,-0.952997,0.288703,-0.091904,0.108698,0.677056,-0.1853331460310438,-1.472374,-0.320242,0.689087,-0.448624,0.250796,2.749745,-0.944566,0.314796,-0.093267,0.070497,0.503472,-0.2376651460310438,-1.471763,-0.347323,0.691228,0.061713,-0.098464,2.717883,-0.93568,0.340382,-0.092967,-0.002659,0.360943,-0.2641951460310438,-1.472381,-0.372252,0.698406,0.539426,-0.38157,2.506155,-0.927003,0.363714,-0.091527,-0.094802,0.274409,-0.2395271460310438,-1.473492,-0.393704,0.709319,0.879701,-0.564899,2.158389,-0.919126,0.383611,-0.089718,-0.190401,0.230524,-0.1781041460310438,-1.474832,-0.410969,0.72199,1.026528,-0.651071,1.742441,-0.912516,0.399498,-0.087839,-0.279989,0.253075,-0.1052611460310438,-1.47615,-0.424394,0.734237,0.967468,-0.613784,1.367033,-0.90721,0.411769,-0.086122,-0.355638,0.324788,-0.0255571460310438,-1.476671,-0.435151,0.74397,0.710689,-0.394986,1.111074,-0.902792,0.421547,-0.085228,-0.402246,0.444633,0.0469431460310438,-1.475597,-0.444986,0.749613,0.315462,-0.035049,1.025388,-0.89853,0.430445,-0.085799,-0.40454,0.547994,0.1022781460310438,-1.47215,-0.455542,0.750818,-0.09449,0.405873,1.095219,-0.893657,0.439949,-0.088443,-0.366734,0.561913,0.1381871460310438,-1.466547,-0.467575,0.748119,-0.445282,0.765876,1.211724,-0.887818,0.450723,-0.092891,-0.306335,0.510398,0.1300761460310438,-1.459807,-0.480605,0.743018,-0.62862,0.95226,1.264016,-0.88126,0.462315,-0.098214,-0.238079,0.403407,0.0810931460310438,-1.452437,-0.493519,0.73748,-0.633436,1.017068,1.223203,-0.87451,0.473728,-0.103993,-0.201769,0.288693,0.0414161460310438,-1.444609,-0.505563,0.732286,-0.594156,1.048313,1.120947,-0.867946,0.4843,-0.110109,-0.152944,0.185882,0.0200971460310438,-1.436292,-0.516239,0.727321,-0.569421,1.096368,0.971533,-0.861827,0.493613,-0.116624,-0.087117,0.093545,0.0240031460310438,-1.427386,-0.525537,0.722147,-0.58307,1.182996,0.834479,-0.856174,0.501677,-0.123633,-0.013729,0.017884,0.0412661460310438,-1.417722,-0.533905,0.716521,-0.618339,1.284891,0.742037,-0.850761,0.508899,-0.131256,0.05622,-0.035922,0.0714261460310438,-1.40769,-0.541743,0.71049,-0.647657,1.332611,0.686114,-0.845439,0.51563,-0.139133,0.128398,-0.091771,0.0914191460310439,-1.397683,-0.549375,0.704131,-0.676296,1.340022,0.664486,-0.840104,0.522154,-0.146903,0.201264,-0.131239,0.1024551460310439,-1.388139,-0.557188,0.697584,-0.697924,1.295401,0.681517,-0.834626,0.528801,-0.154169,0.260758,-0.174691,0.1107891460310439,-1.379347,-0.565346,0.691042,-0.701634,1.216701,0.713755,-0.828976,0.535708,-0.160674,0.30508,-0.204455,0.1189571460310439,-1.371447,-0.57394,0.68486,-0.67568,1.102817,0.76024,-0.823137,0.542945,-0.166301,0.33359,-0.231269,0.1243391460310439,-1.364536,-0.582975,0.67924,-0.639116,0.975055,0.808994,-0.817133,0.55051,-0.170974,0.345957,-0.256214,0.129761460310439,-1.358525,-0.592418,0.674225,-0.601428,0.859006,0.855587,-0.810973,0.558368,-0.174779,0.347228,-0.267444,0.133261460310439,-1.353307,-0.60226,0.669646,-0.582864,0.764322,0.899814,-0.804644,0.566507,-0.177814,0.34093,-0.283426,0.138341460310439,-1.348764,-0.612495,0.665196,-0.588683,0.70165,0.936256,-0.79813,0.574911,-0.180181,0.331303,-0.291342,0.1412261460310439,-1.344676,-0.623135,0.660505,-0.626341,0.684898,0.969079,-0.791381,0.583584,-0.182061,0.311736,-0.297298,0.1532221460310439,-1.340885,-0.634217,0.655231,-0.68841,0.701249,0.998384,-0.784339,0.592547,-0.183574,0.283149,-0.294512,0.1591451460310439,-1.337256,-0.645842,0.649148,-0.768617,0.744382,1.039196,-0.776914,0.601871,-0.184813,0.257535,-0.286991,0.164321460310439,-1.333692,-0.658156,0.642235,-0.846755,0.795053,1.092816,-0.768988,0.611659,-0.185826,0.228613,-0.275035,0.1594591460310439,-1.330083,-0.671147,0.634743,-0.89822,0.840312,1.145618,-0.76053,0.621885,-0.18669,0.197039,-0.271085,0.1501751460310439,-1.326405,-0.684688,0.627076,-0.915578,0.857713,1.192395,