timestamp,attitude_roll,attitude_pitch,attitude_yaw,rotation_rate_x,rotation_rate_y,rotation_rate_z,gravity_x,gravity_y,gravity_z,user_acc_x,user_acc_y,user_acc_z331230.1,2.652568,-1.129275,3.039193,-0.465266,0.656084,0.435415,0.200738,0.904103,0.37723,0.062507,-0.08257,-0.822054331230.11,2.652883,-1.127694,3.033917,0.138383,0.379064,0.230106,0.20129,0.903426,0.378555,0.032093,-0.439421,-1.196365331230.12,2.244693,-1.188142,2.659219,0.57317,-0.431371,0.265545,0.291761,0.927677,0.233005,0.18561,-0.769809,-1.01482331230.13,2.220929,-1.189865,2.643006,0.574884,-1.00765,0.194698,0.295942,0.928319,0.225039,0.093401,-0.833943,-0.308626331230.14,2.197926,-1.194796,2.628538,0.856874,-0.842358,-0.192003,0.29733,0.930141,0.215483,-0.1927,-0.7476,0.037523331230.15,2.173253,-1.209053,2.601337,1.930608,0.437283,-0.7364,0.291599,0.935281,0.200547,-0.548267,-0.47796,0.040908331230.16,2.138905,-1.232128,2.549914,3.018117,1.664261,-0.997565,0.280045,0.943198,0.178754,-0.727676,-0.014487,-0.325543331230.17,2.085335,-1.258098,2.471563,3.637295,2.199548,-0.894483,0.267795,0.951507,0.151393,-0.71056,0.422974,-0.651302331230.18,2.012054,-1.28127,2.371322,3.707972,2.190297,-0.635443,0.258152,0.958379,0.12193,-0.648899,0.706629,-0.601651331230.19,1.928855,-1.298031,2.269972,3.074752,1.14227,-0.372993,0.25231,0.96303,0.094411,-0.585028,0.855284,-0.56455331230.2,1.84968,-1.306876,2.182815,2.335168,0.341277,-0.04495,0.250788,0.965375,0.071812,-0.44427,0.637348,-0.240956331230.21,1.770502,-1.312343,2.098585,2.294029,0.209263,-0.028893,0.250506,0.966786,0.050703,-0.316226,0.285716,-0.0184331230.22,1.679553,-1.316645,2.001974,2.577246,0.277699,-0.042645,0.249939,0.967877,0.02729,-0.202011,0.033664,0.043343331230.23,1.577103,-1.317919,1.892532,2.830906,0.383214,0.06282,0.250186,0.968197,0.001578,-0.141269,-0.176891,0.009866331230.24,1.471173,-1.314571,1.777386,2.947836,0.63893,0.253125,0.252174,0.967353,-0.025206,-0.113091,-0.300148,0.022017331230.25,1.373704,-1.306746,1.668311,2.902687,0.809385,0.378209,0.25594,0.965341,-0.051107,-0.064228,-0.353158,-0.024378331230.26,1.286102,-1.29709,1.56997,2.739708,0.681201,0.269333,0.259422,0.962776,-0.075918,0.067345,-0.333228,-0.127436331230.27,1.208434,-1.288555,1.48405,2.445185,0.446795,-0.003735,0.260423,0.960434,-0.098727,0.154494,-0.204147,-0.199445331230.29,1.084568,-1.271444,1.349053,1.952006,0.219151,0.035361,0.260723,0.955528,-0.137806,-0.106655,-0.130042,-0.124355331230.28,1.140869,-1.280447,1.410302,2.194093,0.29048,-0.046027,0.260234,0.958144,-0.119326,0.043401,-0.157088,-0.181623331230.3,1.036289,-1.262244,1.296425,1.8164,0.188546,0.025729,0.261322,0.952774,-0.154699,-0.195023,-0.006699,-0.070734331230.31,0.991222,-1.252976,1.246576,1.809744,0.273427,-0.046125,0.261465,0.949919,-0.171144,-0.20429,0.087114,0.025301331230.32,0.949299,-1.243556,1.197831,1.824832,0.495879,-0.106461,0.261325,0.946933,-0.187154,-0.185947,0.108243,0.123525331230.33,0.912747,-1.233571,1.151801,1.811752,0.767965,-0.086044,0.26178,0.943676,-0.202352,-0.162842,0.032825,0.225393331230.34,0.883545,-1.222638,1.110857,1.753016,1.00559,0.031245,0.263719,0.940003,-0.216441,-0.142412,-0.068543,0.31599331230.35,0.862904,-1.210858,1.076193,1.673943,1.258293,0.163258,0.267591,0.935919,-0.229023,-0.121228,-0.154547,0.39571331230.36,0.848571,-1.198474,1.046007,1.634474,1.438064,0.245654,0.272957,0.931485,-0.240479,-0.140145,-0.213544,0.391556331230.37,0.838116,-1.185499,1.018673,1.636336,1.5153,0.320179,0.279389,0.926687,-0.251382,-0.16919,-0.228246,0.308435331230.38,0.828193,-1.171705,0.992541,1.69861,1.387387,0.356345,0.286272,0.921415,-0.262761,-0.186662,-0.226819,0.138418331230.39,0.815266,-1.157086,0.966672,1.782309,0.967212,0.389312,0.292626,0.915635,-0.275648,-0.197945,-0.202531,-0.064776331230.4,0.796452,-1.141151,0.940942,1.916278,0.293177,0.434164,0.297782,0.909113,-0.291271,-0.199164,-0.175959,-0.220936331230.41,0.770479,-1.12389,0.914662,2.061318,-0.373744,0.427839,0.301003,0.901788,-0.310121,-0.188423,-0.090845,-0.240401331230.42,0.741144,-1.105726,0.888628,2.14059,-0.635327,0.41117,0.302787,0.89379,-0.330846,-0.152152,0.016168,-0.032694331230.43,0.713895,-1.087323,0.86397,2.136064,-0.478788,0.374354,0.304381,0.885385,-0.351347,-0.128325,0.114142,0.294173331230.44,0.691088,-1.069421,0.840557,2.080257,-0.125121,0.290579,0.306343,0.876922,-0.370352,-0.118279,0.193527,0.545798331230.45,0.673706,-1.052763,0.818573,1.951025,0.282031,0.200664,0.308931,0.868795,-0.386984,-0.102831,0.234828,0.706381331230.46,0.662612,-1.037834,0.799525,1.711135,0.615235,0.173004,0.312564,0.861306,-0.40057,-0.075137,0.219474,0.787212331230.47,0.658008,-1.02494,0.785027,1.410564,0.842429,0.21881,0.317482,0.854683,-0.410758,-0.092247,0.201454,0.77259331230.48,0.659477,-1.014297,0.775592,1.06587,0.993048,0.277277,0.32364,0.84911,-0.417456,-0.174104,0.211803,0.674399331230.49,0.665704,-1.00592,0.77068,0.753011,1.059245,0.321328,0.330615,0.844655,-0.421013,-0.283512,0.299449,0.519722331230.5,0.675397,-0.999686,0.76908,0.480034,1.138903,0.318705,0.337966,0.841301,-0.42189,-0.373763,0.425651,0.458878331230.51,0.687542,-0.995479,0.769441,0.267149,1.205289,0.266463,0.345308,0.83902,-0.420486,-0.447191,0.528183,0.469817331230.53,0.713439,-0.992383,0.775155,-0.143394,0.89254,0.204034,0.357779,0.837331,-0.413365,-0.527197,0.555217,0.262731331230.52,0.700571,-0.99305,0.771218,0.076148,1.137309,0.22336,0.35207,0.837696,-0.417508,-0.493214,0.557003,0.388959331230.54,0.7248,-0.992981,0.780784,-0.27453,0.602769,0.189886,0.36212,0.837658,-0.408899,-0.503569,0.598316,0.231607331230.55,0.734668,-0.99408,0.786748,-0.305735,0.471516,0.161182,0.36552,0.838257,-0.404623,-0.404308,0.652465,0.351156331230.56,0.744419,-0.995719,0.792563,-0.355447,0.504417,0.113668,0.368517,0.83915,-0.400028,-0.270937,0.648933,0.492664331230.57,0.756223,-0.998452,0.80008,-0.538869,0.568947,0.119347,0.371637,0.840634,-0.39398,-0.158106,0.544071,0.594115331230.58,0.772674,-1.002588,0.81325,-0.899927,0.521895,0.278637,0.375638,0.842866,-0.385321,-0.169644,0.396178,0.558554331230.59,0.79629,-1.009032,0.834743,-1.416943,0.582481,0.357227,0.380742,0.846316,-0.372537,-0.349111,0.425565,0.41308331230.6,0.824357,-1.02013,0.860671,-1.873654,0.596758,0.046756,0.384127,0.852176,-0.355305,-0.486438,0.647549,0.286046331230.61,0.853118,-1.035948,0.888295,-2.234367,0.498528,-0.307383,0.383983,0.860346,-0.335205,-0.571727,0.60227,0.181137331230.62,0.886849,-1.056633,0.921168,-2.747712,0.550449,-0.591769,0.381192,0.870704,-0.310752,-0.554456,0.365029,0.118277331230.63,0.927489,-1.081479,0.962557,-3.234832,0.362962,-0.780172,0.376073,0.882654,-0.281942,-0.4997,0.160712,-0.028865331230.64,0.969415,-1.108917,1.010707,-3.504186,-0.198712,-0.85343,0.367448,0.895217,-0.25213,-0.341065,0.073961,-0.136649331230.65,1.015397,-1.135809,1.069121,-3.709428,-0.775746,-0.795815,0.358058,0.906875,-0.222196,-0.064739,0.014511,-0.095034331230.66,1.069241,-1.16061,1.139282,-3.771242,-1.073296,-0.657714,0.349665,0.917046,-0.19173,0.148763,0.05442,-0.08186331230.67,1.1312,-1.182022,1.21746,-3.680266,-0.971234,-0.494931,0.343016,0.925374,-0.161316,0.186449,0.224696,-0.184174331230.68,1.2001,-1.199633,1.299614,-3.465306,-0.660942,-0.401101,0.338064,0.931906,-0.131393,0.2046,0.421243,-0.291062331230.69,1.274785,-1.213598,1.383021,-3.237962,-0.211126,-0.328941,0.334443,0.93688,-0.101996,0.243331,0.52717,-0.29809331230.71,1.430594,-1.232148,1.550818,-2.845907,-0.456486,-0.339726,0.328952,0.943205,-0.046425,0.340084,0.7558,-0.225914331230.7,1.354682,-1.224024,1.467639,-3.074099,0.094909,-0.256898,0.331958,0.940475,-0.072879,0.301419,0.647202,-0.241025331230.72,1.485641,-1.239618,1.625035,-2.43856,-1.870587,-0.516611,0.323979,0.94566,-0.027656,0.337581,0.887134,-0.404397331230.73,1.532319,-1.247102,1.698986,-2.481226,-2.406489,-0.630678,0.317836,0.948067,-0.012235,0.308416,0.950004,-0.235735331230.74,1.590262,-1.254994,1.782389,-2.701527,-2.008268,-0.826,0.31052,0.950548,0.006045,0.242642,0.874007,0.02435331230.75,1.661756,-1.263829,1.873791,-2.782803,-1.411567,-1.108266,0.30092,0.953254,0.027447,0.143599,0.731758,0.027103331230.77,1.840055,-1.278377,2.082481,-3.074986,-1.016042,-1.255091,0.277883,0.957549,0.076685,-0.197652,0.294099,-0.338663331230.76,1.744749,-1.272515,1.972447,-2.857058,-1.062785,-1.300029,0.289442,0.955843,0.050863,-0.01808,0.538694,-0.127356331230.78,1.943216,-1.278406,2.200569,-3.308197,-0.990509,-1.026569,0.268483,0.957558,0.104883,-0.208378,0.031136,-0.304712331230.79,2.045681,-1.272878,2.317767,-3.364743,-0.966998,-0.87231,0.26105,0.95595,0.134213,-0.196765,-0.144518,-0.236447331230.8,2.137886,-1.263211,2.426143,-3.281191,-1.234102,-0.745846,0.255367,0.953067,0.162636,-0.216762,-0.250187,-0.258384331230.81,2.213262,-1.250656,2.52092,-3.093375,-1.556816,-0.598017,0.251955,0.949191,0.188559,-0.311022,-0.281405,-0.365668331230.82,2.272377,-1.236769,2.60062,-2.821256,-1.658195,-0.487493,0.250419,0.94473,0.211603,-0.352073,-0.35629,-0.306086331230.83,2.320093,-1.222639,2.66746,-2.578874,-1.491013,-0.416481,0.249791,0.940003,0.232376,-0.328481,-0.423401,-0.26381331230.84,2.36001,-1.208703,2.724429,-2.351265,-1.321798,-0.368026,0.249523,0.935157,0.251434,-0.261592,-0.48986,-0.305862331230.85,2.392526,-1.195557,2.772352,-2.095976,-1.201796,-0.333062,0.249567,0.93042,0.268394,-0.216974,-0.526627,-0.323508331230.86,2.418805,-1.184217,2.813493,-1.818103,-1.230669,-0.39248,0.249392,0.926204,0.282754,-0.18085,-0.54771,-0.345544331230.87,2.440029,-1.174288,2.849121,-1.596942,-1.15124,-0.381181,0.249258,0.922415,0.294993,-0.142874,-0.601599,-0.463312331230.88,2.456318,-1.166049,2.87851,-1.296914,-1.066577,-0.349991,0.249222,0.919202,0.304888,-0.132996,-0.672467,-0.355684331230.89,2.466295,-1.159966,2.901081,-0.9643,-1.094943,-0.303225,0.249658,0.91679,0.311717,-0.111871,-0.731334,-0.331096331230.9,2.470088,-1.156093,2.917095,-0.625182,-1.090257,-0.254368,0.250682,0.915236,0.315439,-0.100459,-0.799895,-0.345529331230.91,2.469132,-1.154737,2.927513,-0.286719,-1.049558,-0.245132,0.251756,0.914689,0.31617,-0.066224,-0.838517,-0.326546331230.92,2.463472,-1.155905,2.932516,0.048425,-1.029072,-0.229457,0.252871,0.91516,0.313908,-0.039141,-0.848937,-0.318791331230.93,2.452926,-1.159535,2.932045,0.380337,-1.017107,-0.213785,0.254054,0.916617,0.308657,-0.04568,-0.856956,-0.30855331230.94,2.437515,-1.165654,2.925902,0.713516,-0.967883,-0.207824,0.255145,0.919046,0.300424,-0.094409,-0.850229,-0.288721331230.95,2.418697,-1.174437,2.914891,1.032542,-0.841223,-0.27376,0.255403,0.922473,0.289506,-0.150926,-0.781725,-0.249787331230.96,2.396863,-1.186048,2.899105,1.358128,-0.696532,-0.352506,0.254385,0.926893,0.275966,-0.155402,-0.725721,-0.183422331230.97,2.371264,-1.200808,2.877213,1.742991,-0.455166,-0.463061,0.251811,0.932332,0.259517,-0.1365,-0.705418,-0.100764331230.98,2.340341,-1.218833,2.84696,2.148951,-0.208294,-0.536076,0.247603,0.938698,0.239874,-0.049635,-0.622047,0.047922331230.99,2.299614,-1.239317,2.804402,2.564808,-0.015329,-0.527694,0.242768,0.945562,0.216741,-0.020905,-0.615774,0.12379331231,2.244793,-1.261159,2.745903,2.92231,0.090709,-0.462967,0.238083,0.952444,0.190176,-0.014191,-0.554342,0.236719331231.01,2.174306,-1.28206,2.671166,3.05159,0.086885,-0.333697,0.234441,0.958604,0.161601,-0.02532,-0.42122,0.374258331231.02,2.094641,-1.29913,2.58793,2.788609,0.012932,-0.169199,0.232354,0.963325,0.134226,-0.060921,-0.160179,0.563635331231.03,2.021865,-1.309522,2.512958,2.03292,-0.076232,0.071128,0.232476,0.966062,0.112605,-0.081094,0.238605,0.831303331231.04,1.973111,-1.312002,2.466469,0.903215,-0.536357,0.336009,0.235482,0.966699,0.100203,-0.073983,0.789618,0.991304331231.05,1.955961,-1.307764,2.461249,-0.360546,-1.4651,0.462332,0.240961,0.965606,0.097689,-0.011682,1.44304,0.957243331231.06,1.971949,-1.300707,2.497512,-1.36925,-1.985324,0.205254,0.245635,0.963747,0.104187,0.128221,2.029829,0.877075331231.07,2.006149,-1.293769,2.552508,-1.70971,-1.834383,-0.025604,0.247986,0.961873,0.115342,0.256073,1.996288,0.834167331231.08,2.04819,-1.288408,2.612398,-1.724434,-1.467221,-0.321543,0.247496,0.960393,0.12803,0.198961,1.211635,0.659506331231.09,2.093211,-1.284985,2.67139,-1.593295,-1.071263,-0.551163,0.24433,0.959433,0.140679,0.180413,0.320184,0.632789331231.1,2.14069,-1.283165,2.729077,-1.476423,-0.702738,-0.740251,0.238848,0.958918,0.153059,0.181303,-0.27238,0.644396331231.11,2.190948,-1.281725,2.786492,-1.439595,-0.424887,-0.808069,0.231981,0.958509,0.165666,0.073165,-0.592207,0.672789331231.12,2.239712,-1.27875,2.841297,-1.449051,-0.377013,-0.658811,0.225866,0.957657,0.178545,-0.051,-0.773117,0.611693331231.13,2.277694,-1.273253,2.885088,-1.282262,-0.410251,-0.269663,0.222922,0.95606,0.190409,0.024606,-0.627095,0.624182331231.14,2.291047,-1.265567,2.903525,-0.774674,-0.402204,0.395678,0.225877,0.953778,0.198209,0.246947,0.251849,0.503313331231.15,2.289291,-1.257039,2.901638,-0.521049,0.171801,0.730358,0.232339,0.951181,0.203159,-0.060495,1.028708,0.294888331231.16,2.299253,-1.246323,2.907158,-0.935748,0.526666,0.677617,0.237897,0.947819,0.212238,-0.314267,1.301937,0.102154331231.17,2.311145,-1.237062,2.913454,-0.672677,0.626211,0.513042,0.241826,0.944826,0.220963,-0.180287,0.652434,-0.453004331231.18,2.31703,-1.231595,2.91229,-0.257568,0.698045,0.419281,0.244311,0.943021,0.225886,-0.079287,-0.162946,-0.767802331231.19,2.311046,-1.2286,2.903822,0.097486,-0.02912,0.422444,0.247742,0.94202,0.226324,-0.106247,-0.541034,-1.001867331231.2,2.289336,-1.226072,2.888939,0.214762,-1.012844,0.559914,0.254388,0.941169,0.22246,0.090277,-0.802771,-1.166078331231.21,2.261111,-1.223644,2.875104,0.205902,-1.649075,0.446447,0.262326,0.940346,0.216646,0.08971,-0.917625,-0.575807331231.22,2.232449,-1.226201,2.858071,0.831245,-1.000687,0.048466,0.26653,0.941212,0.207562,-0.12653,-0.818303,-0.023052331231.23,2.20281,-1.239189,2.823066,2.0401,0.823663,-0.467573,0.262678,0.94552,0.192333,-0.421415,-0.625864,0.235248331231.24,2.163734,-1.261054,2.761934,3.088538,2.185147,-0.723078,0.252782,0.952412,0.170329,-0.70226,-0.141987,-0.01385331231.25,2.103903,-1.285146,2.673803,3.591555,2.461613,-0.62343,0.24268,0.959478,0.143205,-0.667713,0.369852,-0.534471331231.26,2.023087,-1.305749,2.570722,3.358725,1.580457,-0.440208,0.235615,0.96508,0.114481,-0.591511,0.785423,-0.801524331231.28,1.85894,-1.326369,2.400555,1.958486,-0.62278,-0.0635,0.232024,0.970276,0.06877,-0.458251,0.842636,-0.44554331231.27,1.938596,-1.318975,2.477582,2.504681,0.208702,-0.205398,0.232504,0.96846,0.089592,-0.554831,0.945846,-0.737251331231.29,1.774609,-1.331976,2.319107,2.107507,-0.467597,-0.077618,0.23166,0.971618,0.04788,-0.335206,0.44687,-0.043653331231.31,1.573664,-1.336649,2.111982,2.587382,0.406667,0.113981,0.232012,0.972713,0.000665,-0.169955,-0.115535,0.183691331231.3,1.677473,-1.336011,2.22138,2.426428,-0.124798,-0.025689,0.231311,0.972564,0.02477,-0.248447,0.114411,0.172725331231.32,1.474682,-1.333543,2.002192,2.591586,0.892437,0.208644,0.233949,0.971987,-0.022555,-0.071245,-0.262637,0.155688331231.33,1.384137,-1.327909,1.897644,2.546704,1.167629,0.199946,0.236329,0.970648,-0.044633,0.014907,-0.280264,0.043458331231.34,1.300301,-1.320891,1.799811,2.483895,1.064982,0.127101,0.238319,0.968936,-0.066084,0.109032,-0.242221,-0.049608331231.35,1.224053,-1.312623,1.712399,2.312068,0.7626,0.124382,0.24012,0.966858,-0.086766,0.147911,-0.195053,-0.176845331231.36,1.155871,-1.303152,1.637409,2.141511,0.308013,0.168048,0.24202,0.964397,-0.10661,-0.061737,-0.083232,-0.165439331231.37,1.095217,-1.292822,1.573771,1.960916,0.015477,0.201526,0.243956,0.961613,-0.125639,-0.171019,0.006893,-0.02614331231.38,1.042658,-1.282635,1.519167,1.810765,-0.010081,0.139432,0.245468,0.958768,-0.14321,-0.240524,0.047778,0.083625331231.39,0.994995,-1.272958,1.468937,1.748802,0.067295,0.036153,0.246137,0.955973,-0.159788,-0.269025,0.039327,0.111021331231.4,0.950348,-1.263522,1.419988,1.757685,0.267132,-0.062607,0.246089,0.953161,-0.175852,-0.213007,-0.05889,0.165003331231.41,0.909271,-1.253369,1.372481,1.800952,0.459041,-0.04893,0.246283,0.950042,-0.191744,-0.168478,-0.177977,0.23009331231.43,0.847353,-1.229275,1.293902,1.706992,0.735113,0.233436,0.251033,0.942246,-0.221707,-0.116069,-0.294633,0.320432331231.42,0.874203,-1.241919,1.329672,1.783459,0.590998,0.071174,0.247737,0.946406,-0.207227,-0.124049,-0.260599,0.288297331231.44,0.828728,-1.216008,1.265412,1.597529,0.848222,0.367743,0.256053,0.93772,-0.234772,-0.147395,-0.266944,0.316941331231.45,0.81546,-1.202472,1.241549,1.543998,0.933002,0.430016,0.262133,0.932932,-0.246828,-0.207232,-0.216837,0.279131331231.46,0.804838,-1.188753,1.219668,1.542984,0.994992,0.452242,0.268697,0.927905,-0.258448,-0.2468,-0.189593,0.223917331231.47,0.794335,-1.174428,1.198164,1.61526,0.920189,0.459506,0.275422,0.922469,-0.270543,-0.261124,-0.180099,0.124272331231.48,0.782036,-1.159621,1.176406,1.68399,0.716277,0.452181,0.281669,0.916652,-0.28357,-0.25074,-0.186503,0.022599331231.49,0.765769,-1.143873,1.154155,1.808402,0.286233,0.459907,0.28699,0.910244,-0.298484,-0.206164,-0.181469,-0.072228331231.5,0.743817,-1.126936,1.131516,1.931204,-0.287728,0.473393,0.290767,0.903101,-0.316012,-0.123866,-0.123712,-0.06001331231.51,0.718094,-1.109299,1.110106,1.955096,-0.75691,0.486768,0.292979,0.895387,-0.33533,-0.072169,-0.051774,0.077853331231.52,0.691302,-1.091515,1.090557,1.942619,-0.987265,0.477746,0.293997,0.887326,-0.355271,-0.060751,0.015262,0.261827331231.53,0.665645,-1.073763,1.072136,1.940055,-0.904382,0.429424,0.294468,0.879001,-0.375028,-0.096775,0.079403,0.451886331231.54,0.644009,-1.056574,1.054449,1.876883,-0.509074,0.350799,0.295314,0.870676,-0.393336,-0.134609,0.140143,0.601512331231.55,0.628951,-1.040809,1.038752,1.698511,-0.029024,0.300808,0.297397,0.862814,-0.408788,-0.140521,0.186274,0.664647331231.56,0.62065,-1.026849,1.026247,1.455277,0.325702,0.302951,0.30097,0.855672,-0.421001,-0.133993,0.251948,0.661449331231.58,0.619054,-1.004639,1.011634,0.961821,0.645137,0.347863,0.31125,0.843968,-0.436854,-0.201371,0.461116,0.551676331231.57,0.617863,-1.014846,1.017398,1.192085,0.518551,0.329968,0.305723,0.8494,-0.430179,-0.156462,0.358044,0.615131331231.59,0.623625,-0.996447,1.008419,0.709352,0.760909,0.331429,0.317271,0.839546,-0.441024,-0.258143,0.548104,0.481414331231.6,0.630739,-0.990359,1.007327,0.478091,0.816847,0.305752,0.323408,0.836223,-0.442875,-0.317793,0.582417,0.420216331231.61,0.639236,-0.986016,1.008471,0.258854,0.721551,0.315873,0.329323,0.833833,-0.443022,-0.388268,0.56462,0.376234331231.62,0.647628,-0.983337,1.012483,0.023815,0.429172,0.349943,0.334376,0.832351,-0.442022,-0.433131,0.545914,0.322989331231.63,0.654943,-0.981947,1.018691,-0.130933,0.15562,0.361167,0.338304,0.831581,-0.440481,-0.43149,0.573845,0.367666331231.64,0.66123,-0.981341,1.025326,-0.188555,0.072339,0.318206,0.341377,0.831244,-0.438744,-0.368675,0.626841,0.484505331231.65,0.667669,-0.981394,1.031475,-0.230489,0.159502,0.254579,0.344167,0.831273,-0.436502,-0.280874,0.641734,0.588449331231.66,0.675794,-0.982262,1.039231,-0.389989,0.152847,0.313002,0.347251,0.831755,-0.433128,-0.295631,0.571611,0.516899331231.67,0.686979,-0.984492,1.052369,-0.728986,-0.024445,0.458998,0.350897,0.832991,-0.427782,-0.423635,0.613573,0.354784331231.68,0.698901,-0.989758,1.069496,-1.10811,-0.319498,0.341267,0.353144,0.835893,-0.420204,-0.510692,0.884795,0.251641331231.69,0.708836,-0.999048,1.086863,-1.405462,-0.484696,0.049813,0.352231,0.840956,-0.410763,-0.59361,0.866197,0.295192331231.7,0.720808,-1.012605,1.105469,-1.797014,-0.32625,-0.197529,0.349566,0.848215,-0.397914,-0.612247,0.688422,0.260157331231.71,0.736182,-1.030927,1.127231,-2.260857,-0.364806,-0.433161,0.345148,0.857776,-0.380911,-0.543024,0.459729,0.018057331231.72,0.753212,-1.053626,1.154019,-2.715726,-0.701397,-0.577053,0.338178,0.869222,-0.360679,-0.349164,0.176814,-0.076638331231.73,0.774019,-1.079039,1.188298,-3.095926,-1.000868,-0.548499,0.330058,0.881505,-0.337656,-0.134074,-0.008214,-0.025534331231.74,0.800897,-1.105667,1.232493,-3.435352,-1.331805,-0.416989,0.322042,0.893764,-0.312211,0.02978,-0.153819,0.072892331231.75,0.838191,-1.132998,1.290461,-3.857024,-1.539469,-0.219303,0.315176,0.905687,-0.283539,0.1737,-0.144381,0.210587331231.76,0.893019,-1.15967,1.366394,-4.145387,-1.4189,0.005247,0.311309,0.916671,-0.250601,0.244066,0.004639,0.212713331231.77,0.959042,-1.183283,1.449136,-3.94738,-0.887121,0.0406,0.309354,0.925852,-0.217022,0.182605,0.239264,0.055172331231.78,1.02997,-1.203218,1.531124,-3.551271,-0.42916,-0.044886,0.30807,0.9332,-0.185013,0.061894,0.470791,-0.158341331231.79,1.103645,-1.219904,1.611052,-3.215136,-0.012575,-0.123296,0.306906,0.939066,-0.1548,0.068048,0.609334,-0.24286331231.8,1.17876,-1.234001,1.688356,-2.899491,0.293015,-0.226106,0.305393,0.943819,-0.126261,0.164242,0.664092,-0.245748331231.81,1.243576,-1.246448,1.757063,-2.401203,-0.233339,-0.447596,0.301781,0.947859,-0.102431,0.18354,0.751162,-0.379487331231.82,1.284699,-1.258541,1.81284,-1.980066,-1.501794,-0.689935,0.294719,0.951643,-0.086696,0.160787,0.793123,-0.438816331231.83,1.323727,-1.271685,1.874895,-2.271899,-2.156402,-0.79941,0.285723,0.955599,-0.072066,0.15579,0.713423,-0.160951331231.84,1.368287,-1.285881,1.950214,-2.466974,-3.049462,-0.970315,0.275333,0.959685,-0.056532,0.088955,0.673173,-0.400514331231.85,1.41112,-1.301754,2.031784,-2.546313,-3.668208,-1.218987,0.262427,0.964026,-0.042263,0.0178,0.654535,-0.376407331231.86,1.479728,-1.317818,2.135792,-3.017554,-2.972946,-1.260439,0.249251,0.968171,-0.022762,-0.071379,0.444625,-0.047032331231.87,1.58549,-1.331478,2.266865,-3.330894,-1.896076,-1.254688,0.237015,0.9715,0.003483,-0.254517,0.174954,0.054378331231.88,1.716307,-1.341285,2.415284,-3.378913,-1.257134,-1.245296,0.225097,0.973778,0.032987,-0.289123,-0.039879,-0.036375331231.89,1.852906,-1.344841,2.569441,-3.352427,-1.49264,-1.036141,0.215181,0.97458,0.062368,-0.226488,-0.255541,-0.218237331231.91,2.101658,-1.3332,2.864599,-3.316867,-2.02199,-0.747004,0.202974,0.971907,0.119161,-0.148866,-0.297132,-0.215398331231.9,1.983093,-1.341532,2.722186,-3.382281,-1.964712,-0.825693,0.208217,0.973834,0.091067,-0.163722,-0.295474,-0.30617331231.92,2.202751,-1.321781,2.990006,-3.113648,-2.111828,-0.697978,0.198854,0.969156,0.145584,-0.177156,-0.355371,-0.197601331231.93,2.281686,-1.308944,3.093752,-2.793262,-2.168619,-0.597846,0.196167,0.965912,0.168915,-0.203919,-0.395355,-0.182724331231.94,2.340983,-1.295517,-3.106806,-2.462731,-2.002367,-0.4652,0.195104,0.962349,0.189257,-0.183828,-0.504341,-0.14818331231.95,2.387318,-1.282595,-3.039865,-2.17608,-1.737343,-0.41652,0.194628,0.958757,0.207137,-0.148821,-0.513169,-0.170363331231.96,2.425154,-1.271531,-2.983042,-1.863417,-1.667387,-0.515441,0.193608,0.955553,0.222337,-0.135899,-0.457308,-0.273942331231.97,2.456953,-1.261835,-2.932866,-1.684795,-1.58263,-0.523749,0.192292,0.95265,0.235546,-0.094635,-0.528242,-0.342465331231.98,2.484095,-1.25299,-2.88936,-1.48259,-1.394277,-0.495861,0.190971,0.949923,0.247338,-0.06768,-0.630129,-0.290918331231.99,2.505307,-1.245577,-2.853551,-1.215593,-1.250748,-0.44485,0.189861,0.947581,0.25699,-0.034526,-0.696055,-0.270402331232,2.519671,-1.240109,-2.825789,-0.895532,-1.194806,-0.39311,0.189166,0.945819,0.263898,-0.008776,-0.713321,-0.26582331232.01,2.527518,-1.236891,-2.805197,-0.577611,-1.164522,-0.353057,0.188842,0.94477,0.26786,0.031663,-0.742316,-0.272941331232.02,2.52904,-1.235958,-2.791656,-0.253363,-1.127771,-0.299088,0.188941,0.944463,0.268868,0.051919,-0.757726,-0.253884331232.03,2.525064,-1.237449,-2.784353,0.059513,-1.082751,-0.292223,0.189194,0.944952,0.266965,0.071594,-0.737402,-0.231016331232.04,2.517775,-1.241598,-2.781113,0.354656,-1.030549,-0.338923,0.188842,0.946302,0.262395,0.094895,-0.744901,-0.235173331232.05,2.506041,-1.24842,-2.783247,0.678438,-0.959019,-0.351263,0.188072,0.948485,0.25496,0.04731,-0.744124,-0.184632331232.06,2.488891,-1.257987,-2.791656,1.016093,-0.915332,-0.376211,0.186897,0.951473,0.244477,0.000023,-0.661479,-0.126679331232.07,2.465994,-1.270163,-2.806822,1.326124,-0.823551,-0.396207,0.185186,0.955149,0.231076,-0.01412,-0.633967,-0.038983331232.08,2.436613,-1.284366,-2.830139,1.607308,-0.670703,-0.383539,0.183084,0.959259,0.215182,0.000876,-0.626937,0.07562331232.09,2.399194,-1.300247,-2.863701,1.886413,-0.46442,-0.3529,0.180684,0.963624,0.196931,0.010646,-0.574693,0.196258331232.1,2.349918,-1.317279,-2.911406,2.171458,-0.284493,-0.270876,0.178459,0.968036,0.176233,0.013252,-0.521351,0.310843331232.11,2.284209,-1.334532,-2.976609,2.401417,-0.250384,-0.169673,0.17699,0.972219,0.153181,0.015225,-0.388662,0.408998331232.12,2.201751,-1.350093,-3.057887,2.413937,-0.365833,-0.037881,0.176767,0.975744,0.129142,0.035193,-0.179128,0.489114331232.13,2.113216,-1.361996,3.14006,2.081884,-0.595845,0.02716,0.177533,0.97828,0.107004,0.069827,0.149543,0.602835331232.14,2.037315,-1.369283,3.070779,1.422068,-0.889238,0.050053,0.178764,0.979765,0.090024,0.137322,0.608553,0.704074331232.15,1.988104,-1.371848,3.03253,0.589678,-1.300255,0.114507,0.180678,0.980275,0.080103,0.212236,0.988429,0.804953331232.16,1.971778,-1.370388,3.032791,-0.278898,-1.778645,0.131868,0.183279,0.979985,0.077701,0.220209,1.265086,0.915753331232.17,1.988391,-1.366013,3.069028,-1.016821,-1.917496,0.106631,0.18588,0.979105,0.082473,0.180041,1.298559,0.983155331232.18,2.026789,-1.360048,3.126003,-1.403809,-1.656791,0.01491,0.187817,0.977875,0.092118,0.147281,1.100845,0.897796331232.19,2.077066,-1.35439,-3.092919,-1.48701,-1.129939,-0.182808,0.187787,0.976675,0.104122,0.109622,0.706278,0.817539331232.2,2.133366,-1.349789,-3.026759,-1.485319,-0.762251,-0.386779,0.185429,0.975677,0.11692,0.058498,0.118988,0.725595331232.21,2.19457,-1.345801,-2.957348,-1.513361,-0.635414,-0.58067,0.181087,0.974795,0.130314,-0.007945,-0.27547,0.669521331232.22,2.25576,-1.342201,-2.887465,-1.455241,-0.744011,-0.698355,0.175496,0.973986,0.143363,-0.113774,-0.561007,0.638482331232.23,2.30758,-1.338507,-2.824344,-1.309443,-1.052218,-0.637423,0.170499,0.973142,0.154678,-0.233914,-0.792081,0.557038331232.24,2.35054,-1.333551,-2.768263,-1.305346,-1.169883,-0.522782,0.167126,0.971989,0.165246,-0.18005,-0.677388,0.61167331232.25,2.386535,-1.327846,-2.72166,-1.117619,-0.803429,-0.326856,0.164868,0.970632,0.175189,0.132266,-0.08341,0.523114331232.26,2.403767,-1.323326,-2.703911,-0.442214,0.304206,0.098512,0.164775,0.969535,0.181248,0.131276,0.53283,0.211269331232.27,2.399848,-1.320775,-2.717084,0.150758,1.001421,0.507319,0.167154,0.968907,0.182424,0.093985,0.93983,-0.318547331232.28,2.388083,-1.318055,-2.738519,0.119724,0.815321,0.575947,0.171091,0.96823,0.182366,0.369695,0.735734,-0.688226331232.29,2.380157,-1.313336,-2.749867,-0.246347,0.136822,0.535301,0.175682,0.96704,0.184309,0.376931,0.231248,-0.637327331232.3,2.372582,-1.306759,-2.75584,-0.365605,-0.27304,0.592092,0.181492,0.965344,0.18754,0.224728,-0.21124,-0.620096331232.31,2.353729,-1.300791,-2.769265,-0.101015,-0.709269,0.697157,0.189076,0.96377,0.188145,0.263103,-0.445947,-0.697957331232.32,2.325773,-1.297283,-2.788319,0.196696,-1.024452,0.561902,0.196722,0.962828,0.185103,0.156931,-0.556334,-0.386702331232.33,2.297659,-1.29835,-2.809162,0.608315,-0.668475,0.202448,0.20108,0.963115,0.178817,-0.064926,-0.548946,-0.018752331232.34,2.270133,-1.307175,-2.839278,1.427029,0.486502,-0.269054,0.199412,0.965453,0.167737,-0.249339,-0.458373,0.112582331232.35,2.232777,-1.325249,-2.891587,2.421105,1.555017,-0.675768,0.191741,0.970004,0.149421,-0.406356,-0.244846,-0.040275331232.36,2.170837,-1.349713,-2.973599,3.166689,1.824474,-0.908187,0.18098,0.97566,0.123826,-0.500972,0.057253,-0.416017331232.37,2.070917,-1.376221,-3.09339,3.606631,1.714022,-0.980892,0.169669,0.98113,0.092717,-0.620536,0.430323,-0.616506331232.38,1.93397,-1.399204,3.036178,3.439995,1.270419,-0.883838,0.159614,0.985314,0.060658,-0.681937,0.648658,-0.57584331232.39,1.779593,-1.414136,2.873529,2.83929,0.389798,-0.608798,0.152631,0.987754,0.03234,-0.640287,0.664681,-0.463294331232.4,1.620675,-1.420968,2.713428,2.468859,-0.158433,-0.280435,0.149083,0.988797,0.007442,-0.541753,0.513111,-0.233532331232.41,1.456041,-1.420942,2.546807,2.545861,0.114879,-0.022196,0.148312,0.988793,-0.017095,-0.345394,0.2192,0.073186331232.42,1.290051,-1.414321,2.375059,2.771835,0.456781,0.186952,0.149736,0.987783,-0.043178,-0.149233,0.008021,0.152965331232.43,1.143126,-1.402234,2.219088,2.800266,0.781262,0.249215,0.152656,0.985827,-0.069581,0.035897,-0.120348,0.136827331232.44,1.018684,-1.389259,2.083677,2.674875,0.921538,-0.056613,0.153717,0.983567,-0.094692,0.282425,-0.144166,0.07954331232.45,0.907048,-1.376888,1.962025,2.569469,0.722816,-0.336681,0.151784,0.981259,-0.118714,0.436336,-0.178219,-0.011657331232.46,0.812046,-1.362794,1.859422,2.452685,0.534051,-0.220743,0.14986,0.978445,-0.142079,0.374096,-0.307577,-0.055034331232.48,0.700633,-1.331145,1.726228,2.050681,1.266376,0.070367,0.153029,0.971421,-0.181449,0.085908,-0.314164,0.160499331232.47,0.745257,-1.347052,1.783782,2.218255,0.808005,0.000609,0.150472,0.975073,-0.163065,0.232096,-0.433463,0.073953331232.49,0.669039,-1.315388,1.677844,1.970757,1.624932,0.076058,0.156696,0.96756,-0.198176,-0.028873,-0.140854,0.171595331232.5,0.643926,-1.300132,1.633884,1.907743,1.762192,-0.000718,0.160514,0.963593,-0.213829,-0.094474,0.008697,0.127587331232.51,0.619125,-1.285656,1.591453,1.861869,1.538763,-0.111487,0.16324,0.959622,-0.229081,-0.117601,0.062976,-0.000411331232.52,0.593455,-1.271457,1.551307,1.834286,1.213399,-0.143843,0.16491,0.955532,-0.244467,-0.11744,0.003026,-0.037592331232.53,0.571514,-1.256926,1.516061,1.80909,1.196911,-0.062864,0.167001,0.951146,-0.259678,-0.105599,-0.121327,0.127628331232.54,0.556463,-1.241739,1.487006,1.776438,1.29594,0.071088,0.170684,0.946347,-0.274397,-0.100219,-0.289228,0.283247331232.55,0.549199,-1.226251,1.464096,1.717481,1.501669,0.203419,0.176317,0.941229,-0.288097,-0.113374,-0.337866,0.320675331232.56,0.547249,-1.210252,1.445333,1.722405,1.593991,0.304619,0.183567,0.935705,-0.301262,-0.139393,-0.339392,0.259163331232.57,0.546358,-1.193659,1.428438,1.757782,1.438527,0.35665,0.19134,0.929723,-0.31465,-0.155467,-0.277318,0.110441331232.58,0.542378,-1.176719,1.41259,1.776198,0.934184,0.372218,0.198189,0.923351,-0.328853,-0.188103,-0.206234,-0.056142331232.59,0.532032,-1.159547,1.397134,1.813228,0.196076,0.35876,0.20279,0.916622,-0.3445,-0.168,-0.118984,-0.136335331232.6,0.515375,-1.142014,1.381975,1.850746,-0.406622,0.34276,0.204914,0.909473,-0.361759,-0.09415,-0.038547,-0.051464331232.61,0.497251,-1.124252,1.367702,1.866417,-0.528301,0.33152,0.205998,0.901945,-0.379553,-0.00124,0.022814,0.229589331232.62,0.480431,-1.106405,1.353659,1.886549,-0.376201,0.277848,0.206992,0.894094,-0.397177,0.006509,0.091715,0.443518331232.63,0.465863,-1.088856,1.339058,1.877576,-0.080305,0.185047,0.208201,0.886097,-0.414106,-0.051707,0.162639,0.543348331232.64,0.454134,-1.071984,1.324073,1.821629,0.226424,0.098211,0.209859,0.878151,-0.429895,-0.084371,0.201576,0.576806331232.65,0.446014,-1.056357,1.310229,1.674179,0.447435,0.075968,0.212256,0.870569,-0.443912,-0.048254,0.236685,0.622867331232.66,0.441991,-1.042327,1.299285,1.452248,0.58594,0.128068,0.215672,0.86358,-0.455759,-0.010517,0.252402,0.689172331232.67,0.44331,-1.030499,1.292613,1.144713,0.759089,0.225229,0.220639,0.857556,-0.464668,-0.038906,0.282626,0.758217331232.68,0.450208,-1.021238,1.290026,0.820437,0.975844,0.296486,0.227285,0.852755,-0.470266,-0.142568,0.355817,0.727758331232.69,0.461735,-1.014544,1.290603,0.518717,1.154983,0.330682,0.235228,0.84924,-0.472715,-0.250045,0.460804,0.624769331232.7,0.476198,-1.010136,1.293223,0.278909,1.246247,0.322975,0.243754,0.846904,-0.472585,-0.350825,0.518177,0.541891331232.71,0.490777,-1.007348,1.297034,0.117284,1.089852,0.308158,0.251729,0.845418,-0.471063,-0.416875,0.51768,0.433877331232.72,0.503055,-1.005852,1.301834,-0.024799,0.730826,0.298396,0.258104,0.844618,-0.469044,-0.44861,0.527177,0.311024331232.73,0.512398,-1.0053,1.307676,-0.128609,0.361131,0.305016,0.262703,0.844323,-0.467019,-0.452019,0.536171,0.269784331232.74,0.520079,-1.005475,1.314259,-0.208142,0.185343,0.295244,0.266209,0.844416,-0.464859,-0.406681,0.572927,0.369293331232.75,0.527509,-1.006245,1.320769,-0.253668,0.209749,0.255267,0.269328,0.844829,-0.462306,-0.315623,0.614339,0.515574331232.76,0.536094,-1.007749,1.327776,-0.353711,0.284641,0.249896,0.272638,0.845633,-0.458884,-0.219888,0.592447,0.63819331232.77,0.547225,-1.010655,1.337838,-0.604342,0.247564,0.34819,0.276449,0.84718,-0.45372,-0.166845,0.526981,0.65123331232.78,0.562815,-1.016124,1.353943,-1.037621,0.182218,0.44818,0.281012,0.850073,-0.44543,-0.248221,0.466516,0.503901331232.79,0.580437,-1.026095,1.373113,-1.504958,0.106489,0.235053,0.284155,0.855282,-0.4333,-0.359778,0.622669,0.37698331232.8,0.597368,-1.040907,1.39187,-1.867584,0.091498,-0.109745,0.284293,0.862863,-0.417906,-0.456259,0.710257,0.312483331232.81,0.617053,-1.060689,1.412092,-2.348711,0.266159,-0.362189,0.28253,0.872692,-0.398228,-0.460539,0.540745,0.307102331232.82,0.641515,-1.085437,1.436718,-2.825581,0.249218,-0.557425,0.279174,0.884507,-0.373776,-0.403778,0.294326,0.175107331232.83,0.666795,-1.113692,1.466082,-3.151807,-0.227396,-0.696568,0.272963,0.897334,-0.346817,-0.304594,0.113881,-0.068603331232.84,0.688749,-1.144189,1.498132,-3.44497,-0.748079,-0.705023,0.26299,0.910375,-0.319459,-0.074208,-0.025136,-0.084441331232.85,0.731664,-1.17455,1.55452,-3.799435,-1.090663,-0.567201,0.257862,0.922516,-0.287178,0.213711,-0.084244,0.054496331232.86,0.77795,-1.205692,1.615922,-3.847082,-1.041817,-0.450312,0.250582,0.934087,-0.254343,0.373685,0.008601,0.114466331232.87,0.834491,-1.233356,1.684119,-3.551858,-0.649571,-0.345353,0.24531,0.943605,-0.222334,0.370138,0.137404,0.037138331232.88,0.899293,-1.256552,1.756105,-3.201998,-0.244811,-0.261309,0.241989,0.95103,-0.192309,0.320191,0.345967,-0.104444331232.89,0.971948,-1.276081,1.831844,-2.955493,0.13013,-0.217584,0.239921,0.956885,-0.163734,0.294884,0.51542,-0.203087331232.9,1.049712,-1.293052,1.910903,-2.768165,0.151618,-0.279012,0.237797,0.961676,-0.136496,0.303494,0.614495,-0.192468331232.91,1.119453,-1.308513,1.988398,-2.502286,-0.794978,-0.448937,0.233322,0.9658,-0.113094,0.27449,0.69579,-0.251194331232.92,1.178189,-1.323209,2.06607,-2.408067,-1.885805,-0.568671,0.226419,0.969507,-0.093762,0.256247,0.753287,-0.402103331232.93,1.247378,-1.337674,2.15856,-2.662658,-2.084638,-0.590578,0.21904,0.97295,-0.073419,0.193436,0.725994,-0.131995331232.94,1.327446,-1.352104,2.263388,-2.646929,-2.314239,-0.808634,0.210561,0.976182,-0.052276,0.147807,0.607024,0.008193331232.95,1.411772,-1.367616,2.373786,-2.608325,-2.339862,-1.139222,0.199239,0.97943,-0.031954,0.042659,0.618959,-0.168013331232.96,1.524928,-1.382598,2.508109,-2.848718,-1.688265,-1.239389,0.186892,0.982343,-0.008579,0.00575,0.499133,-0.06947331232.97,1.676175,-1.393905,2.674525,-3.049747,-1.130938,-1.21934,0.174994,0.984395,0.018509,-0.105384,0.245753,-0.05864331232.98,1.84814,-1.399956,2.860221,-3.047767,-1.15541,-1.209639,0.163513,0.985442,0.046549,-0.138764,0.039948,-0.104243331232.99,2.019438,-1.399783,3.048519,-3.016906,-1.557867,-1.09497,0.15334,0.985413,0.073815,-0.13509,-0.119354,-0.256249331233,2.175767,-1.393002,-3.057207,-3.025831,-1.935365,-0.928403,0.14547,0.984236,0.100586,-0.177605,-0.259337,-0.324295331233.01,2.307568,-1.381036,-2.902849,-2.951317,-2.024319,-0.795083,0.139702,0.982049,0.126736,-0.22593,-0.326593,-0.311169331233.02,2.411278,-1.366131,-2.776526,-2.767543,-2.045453,-0.681302,0.135581,0.979129,0.151406,-0.227088,-0.398578,-0.26249331233.03,2.487377,-1.350179,-2.677783,-2.513318,-2.063575,-0.565848,0.133167,0.975763,0.173649,-0.188023,-0.475427,-0.239658331233.04,2.54279,-1.334255,-2.599704,-2.295132,-2.085023,-0.487002,0.132087,0.972154,0.193569,-0.108833,-0.54059,-0.23901331233.05,2.585423,-1.318732,-2.535292,-2.127331,-1.964814,-0.45814,0.13167,0.9684,0.211815,-0.062593,-0.566666,-0.288688331233.06,2.618986,-1.304423,-2.481604,-1.88243,-1.814013,-0.447918,0.131391,0.964732,0.228098,-0.024778,-0.568797,-0.295389331233.07,2.64525,-1.292239,-2.436806,-1.594586,-1.663542,-0.471489,0.130944,0.961453,0.241789,-0.009468,-0.565137,-0.278227331233.08,2.66747,-1.282468,-2.398073,-1.308509,-1.456696,-0.518735,0.129822,0.95872,0.252985,0.057998,-0.581218,-0.273569331233.09,2.684968,-1.275404,-2.365072,-0.98377,-1.423577,-0.534154,0.128359,0.956688,0.26129,0.096785,-0.599632,-0.258421331233.1,2.696824,-1.271184,-2.338505,-0.638749,-1.341317,-0.526055,0.126988,0.955451,0.266435,0.085491,-0.624381,-0.281236331233.11,2.7054,-1.269992,-2.316123,-0.31485,-1.278444,-0.558655,0.125179,0.955099,0.268546,0.099888,-0.635427,-0.243522331233.12,2.710768,-1.271578,-2.29756,-0.010373,-1.237799,-0.573206,0.123103,0.955567,0.267837,0.131566,-0.65471,-0.257919331233.14,2.710269,-1.283557,-2.273275,0.661468,-1.178902,-0.582496,0.118443,0.95903,0.257359,0.091122,-0.715331,-0.183979331233.13,2.712551,-1.276014,-2.283152,0.311169,-1.202373,-0.570532,0.120861,0.956865,0.264199,0.126042,-0.673418,-0.23066331233.15,2.704334,-1.294321,-2.267552,1.000198,-1.141642,-0.611686,0.11559,0.962024,0.247285,0.074626,-0.706454,-0.147202331233.16,2.695737,-1.308258,-2.265217,1.324344,-1.072565,-0.675267,0.111918,0.965734,0.234161,0.056996,-0.674902,-0.103332331233.17,2.684748,-1.325132,-2.26642,1.614397,-0.958528,-0.726469,0.10728,0.969976,0.21826,0.063145,-0.65122,-0.023711331233.18,2.669897,-1.344518,-2.273245,1.887236,-0.781224,-0.728897,0.101945,0.974508,0.199853,0.080321,-0.647817,0.068641331233.2,2.610506,-1.389492,-2.321682,2.408104,-0.518458,-0.594883,0.091323,0.983609,0.155476,0.126404,-0.435132,0.361675331233.19,2.647087,-1.366115,-2.289916,2.168181,-0.62817,-0.683132,0.096464,0.979126,0.178906,0.111559,-0.629303,0.18372331233.21,2.554287,-1.412803,-2.374061,2.467089,-0.449492,-0.452567,0.087183,0.987545,0.130973,0.128316,-0.209316,0.465188331233.23,2.395718,-1.447809,-2.524271,1.566663,-0.585839,-0.148227,0.083251,0.992447,0.090106,0.123079,0.596909,0.758756331233.22,2.476983,-1.433365,-2.447749,2.237447,-0.449952,-0.286932,0.084494,0.990571,0.10784,0.12127,0.140975,0.610147331233.24,2.338992,-1.454761,-2.573314,0.689447,-0.906895,-0.041726,0.083261,0.993275,0.080445,0.174444,1.035548,0.861404331233.26,2.348613,-1.449028,-2.535059,-0.91192,-1.631081,0.074625,0.086539,0.992595,0.085237,0.289101,1.235493,1.009459331233.25,2.323136,-1.454697,-2.57663,-0.194633,-1.383692,0.053441,0.084573,0.993268,0.079158,0.282722,1.303958,0.952031331233.27,2.394604,-1.440001,-2.473638,-1.263402,-1.428624,0.063472,0.088613,0.991458,0.095696,0.311213,0.954937,0.942695331233.28,2.450062,-1.430076,-2.40692,-1.367587,-0.952447,-0.06167,0.089444,0.990115,0.108035,0.308993,0.531094,0.808514331233.29,2.510371,-1.420371,-2.339381,-1.386513,-0.581205,-0.217782,0.088437,0.988707,0.120982,0.222461,0.040116,0.690953331233.3,2.575041,-1.410422,-2.269122,-1.472432,-0.464701,-0.384386,0.085709,0.987167,0.134738,0.143509,-0.265228,0.643872331233.31,2.640668,-1.39998,-2.196911,-1.518922,-0.623274,-0.526322,0.081634,0.985446,0.149102,0.036896,-0.513614,0.569251331233.32,2.694029,-1.389452,-2.133946,-1.427566,-0.959136,-0.478595,0.078051,0.983602,0.162588,-0.105486,-0.741979,0.503717331233.33,2.731229,-1.378011,-2.084125,-1.446544,-1.232324,-0.347668,0.076435,0.981474,0.175686,-0.022403,-0.533232,0.55344331233.34,2.760755,-1.366482,-2.043436,-1.335038,-0.913263,-0.262241,0.075416,0.9792,0.188359,0.320855,0.089419,0.403209331233.35,2.77449,-1.358642,-2.028631,-0.631254,0.247233,0.102352,0.075575,0.977579,0.196537,0.228853,0.704305,0.02116331233.36,2.769784,-1.357822,-2.043607,0.219651,1.178598,0.383503,0.07679,0.977407,0.196926,0.135749,0.87411,-0.505947331233.37,2.759515,-1.359611,-2.066368,0.330745,1.142924,0.355751,0.078156,0.977783,0.194503,0.268875,0.634018,-0.665161331233.38,2.753448,-1.360193,-2.080287,0.10363,0.627669,0.220793,0.07912,0.977905,0.1935,0.21008,0.19339,-0.632373331233.39,2.749396,-1.360082,-2.0875,0.060168,0.202768,0.1224,0.079944,0.977882,0.193277,0.196087,-0.119056,-0.758356331233.41,2.723201,-1.367163,-2.105027,0.637775,-0.786436,-0.071371,0.082164,0.979338,0.184786,0.204732,-0.564131,-0.391451331233.4,2.739588,-1.361964,-2.095435,0.314822,-0.354925,0.067584,0.081116,0.978274,0.19079,0.283478,-0.385943,-0.719995331233.42,2.711303,-1.377023,-2.11005,1.077492,-0.614946,-0.419343,0.080325,0.981285,0.17501,-0.002947,-0.631355,-0.148368331233.43,2.709402,-1.394063,-2.111596,1.758607,0.198837,-0.774628,0.073642,0.984423,0.159648,-0.231265,-0.483126,-0.090862331233.44,2.708851,-1.41958,-2.12218,2.623917,1.244606,-0.95283,0.063173,0.988589,0.136755,-0.395311,-0.170931,-0.307226331233.45,2.688212,-1.451516,-2.159923,3.270104,1.788097,-0.890112,0.052122,0.992895,0.106975,-0.464948,0.163661,-0.589611331233.46,2.616912,-1.485221,-2.249029,3.427722,1.688351,-0.740018,0.042815,0.996341,0.073973,-0.461883,0.381513,-0.617507331233.47,2.439029,-1.513732,-2.441454,3.001559,1.342766,-0.430907,0.036853,0.998372,0.043527,-0.33324,0.435572,-0.31289331233.48,2.055867,-1.531607,-2.836342,2.475284,1.069992,-0.118619,0.03466,0.999232,0.018268,-0.21067,0.424764,-0.063282331233.49,1.430841,-1.535992,2.811916,2.37152,0.954809,0.003616,0.034457,0.999394,-0.004854,-0.0674,0.334453,0.003267331233.5,0.876003,-1.525636,2.244967,2.501841,1.261478,-0.008989,0.03468,0.99898,-0.028903,0.102711,0.164823,0.072574331233.51,0.575508,-1.50679,1.929103,2.561003,1.588357,-0.061782,0.034812,0.997952,-0.053659,0.222207,-0.000363,0.109201331233.52,0.417259,-1.484664,1.753019,2.605963,1.781863,-0.133514,0.034863,0.996293,-0.078645,0.278294,-0.15004,0.111742331233.53,0.317581,-1.460705,1.635378,2.692997,1.718026,-0.24254,0.034309,0.993946,-0.104375,0.318017,-0.254307,0.063908331233.54,0.251733,-1.435665,1.55288,2.700206,1.596304,-0.264531,0.033556,0.990884,-0.130474,0.293577,-0.360894,0.063534331233.55,0.214051,-1.41074,1.498661,2.596147,1.631264,-0.176922,0.033854,0.987218,-0.155737,0.140798,-0.377111,0.012091331233.56,0.196972,-1.387217,1.464525,2.379853,1.669876,-0.066812,0.035725,0.983196,-0.17902,0.023586,-0.278759,-0.107585331233.57,0.192978,-1.366704,1.44417,2.010497,1.576649,0.037023,0.03887,0.979245,-0.198917,-0.10369,-0.115705,-0.232449331233.58,0.194257,-1.349673,1.431258,1.655117,1.34105,0.059194,0.042338,0.975652,-0.2152,-0.13676,0.074519,-0.250986331233.59,0.194159,-1.33518,1.418999,1.44896,1.152436,-0.012505,0.045041,0.972371,-0.229056,-0.098065,0.17419,-0.078515331233.6,0.190514,-1.321555,1.404022,1.423959,1.096358,-0.124667,0.04671,0.9691,-0.242206,-0.078021,0.151979,0.155124331233.61,0.18372,-1.306992,1.38502,1.581939,1.198749,-0.221832,0.047637,0.965405,-0.256367,-0.046935,0.039386,0.320087331233.62,0.17979,-1.290861,1.366499,1.710739,1.490838,-0.178882,0.049408,0.961073,-0.27184,0.003144,-0.136565,0.406056331233.63,0.18533,-1.274499,1.353762,1.672498,1.889723,-0.013855,0.053804,0.956424,-0.286981,0.019484,-0.266055,0.421732331233.64,0.20028,-1.258436,1.347681,1.613278,2.13953,0.175999,0.061136,0.951611,-0.301163,0.018164,-0.302792,0.356308331233.65,0.219075,-1.242213,1.345369,1.62395,2.077317,0.293733,0.070132,0.9465,-0.31499,-0.003619,-0.252714,0.242419331233.66,0.236896,-1.225714,1.34531,1.613289,1.689856,0.40052,0.079388,0.941048,-0.328826,-0.021771,-0.23716,0.108642331233.67,0.251044,-1.209433,1.347233,1.567923,1.085844,0.478831,0.087827,0.935416,-0.342467,-0.032957,-0.18534,-0.027833331233.68,0.259374,-1.192749,1.349643,1.630598,0.462082,0.516502,0.094667,0.929387,-0.35676,-0.026216,-0.119862,-0.070089331233.69,0.261222,-1.174699,1.350571,1.792476,0.000826,0.494753,0.099643,0.922574,-0.372732,-0.013339,-0.034939,0.019369331233.7,0.258908,-1.155467,1.349274,1.913146,-0.11934,0.431036,0.103304,0.914983,-0.390043,-0.039202,0.053202,0.227201331233.71,0.256,-1.135786,1.345668,1.965914,0.119844,0.334675,0.106709,0.906866,-0.407686,-0.054066,0.100855,0.487291331233.72,0.255644,-1.116453,1.340091,1.936274,0.597035,0.234739,0.110977,0.898549,-0.424609,-0.046188,0.122736,0.720141331233.73,0.258684,-1.098125,1.333504,1.830272,0.985089,0.17071,0.116461,0.890355,-0.440118,-0.005362,0.116145,0.787485331233.74,0.264706,-1.081835,1.32806,1.582899,1.10747,0.190604,0.122888,0.882821,-0.453349,0.03527,0.104682,0.717066331233.75,0.273216,-1.068483,1.325889,1.236093,1.021553,0.279665,0.129911,0.876471,-0.463597,0.002185,0.108591,0.600468331233.76,0.283216,-1.058061,1.326726,0.929994,0.915078,0.339246,0.137086,0.871406,-0.47102,-0.084748,0.201684,0.536877331233.77,0.294611,-1.049899,1.328742,0.708412,1.009431,0.322079,0.144504,0.867373,-0.476217,-0.182208,0.36453,0.587209331233.78,0.307705,-1.043887,1.33053,0.499403,1.215337,0.243822,0.152304,0.864366,-0.479245,-0.243276,0.48883,0.649396331233.79,0.321768,-1.040097,1.331613,0.293482,1.346465,0.145531,0.160063,0.862453,-0.480161,-0.279356,0.525944,0.6116331233.8,0.335313,-1.038587,1.332447,0.074862,1.259193,0.074485,0.16698,0.861688,-0.479177,-0.328845,0.523138,0.485434331233.81,0.347539,-1.039136,1.333807,-0.119869,1.060123,0.041356,0.172665,0.861966,-0.476656,-0.339352,0.505419,0.419023331233.82,0.358039,-1.040888,1.335988,-0.225403,0.805591,0.046545,0.177131,0.862853,-0.473401,-0.29473,0.471207,0.389096331233.83,0.367214,-1.043162,1.339026,-0.285989,0.624632,0.071122,0.180762,0.864,-0.469924,-0.181402,0.445433,0.435821331233.84,0.377015,-1.046215,1.343573,-0.405989,0.591124,0.11609,0.184386,0.865534,-0.465675,-0.05667,0.413275,0.567436331233.86,0.40631,-1.057448,1.363547,-0.969179,0.590957,0.350353,0.194093,0.871105,-0.451114,-0.031327,0.286579,0.632633331233.85,0.389493,-1.050685,1.351029,-0.617914,0.611457,0.20387,0.188712,0.867764,-0.459754,0.027398,0.353306,0.677817331233.87,0.429682,-1.067882,1.382855,-1.48515,0.698618,0.454436,0.200785,0.876182,-0.438168,-0.202021,0.323709,0.484372331233.88,0.45707,-1.083593,1.405934,-2.034514,0.68073,0.245757,0.206607,0.883646,-0.4201,-0.294864,0.50141,0.324229331233.89,0.482722,-1.104565,1.428928,-2.475714,0.49646,-0.090672,0.208665,0.893269,-0.398158,-0.316483,0.494594,0.279811331233.9,0.509813,-1.130349,1.453159,-2.900582,0.550377,-0.357208,0.208062,0.904561,-0.372128,-0.292702,0.352351,0.255246331233.91,0.539841,-1.159818,1.481147,-3.237319,0.394666,-0.512362,0.205346,0.91673,-0.342693,-0.225411,0.23038,0.074748331233.92,0.572544,-1.191844,1.516428,-3.537837,-0.140004,-0.54433,0.200427,0.929053,-0.31095,-0.033679,0.125864,-0.039086331233.93,0.608649,-1.22477,1.561477,-3.669426,-0.747191,-0.50093,0.193919,0.940728,-0.278256,0.165364,0.079887,-0.132526331233.95,0.703656,-1.284285,1.681543,-3.398921,-0.946646,-0.215013,0.18285,0.959236,-0.215483,0.266262,0.322289,-0.246614331233.94,0.650723,-1.256071,1.61601,-3.567626,-0.99839,-0.380761,0.187517,0.950881,-0.246297,0.230848,0.140839,-0.243526331233.96,0.771169,-1.309113,1.759295,-3.244123,-0.658317,-0.078931,0.180312,0.965956,-0.185518,0.323167,0.491686,-0.159895331233.97,0.857161,-1.330948,1.852194,-3.192457,-0.333687,0.017702,0.179589,0.971374,-0.155501,0.358085,0.615128,-0.027513331233.98,0.956469,-1.349793,1.9582,-3.033709,-0.484676,-0.012488,0.179129,0.975678,-0.126354,0.407419,0.674011,-0.038716331233.99,1.042556,-1.365956,2.05926,-2.5744,-1.584946,-0.285968,0.175685,0.979093,-0.102522,0.329869,0.811846,-0.261263331234,1.121183,-1.381114,2.161255,-2.519264,-2.266231,-0.41369,0.169808,0.982064,-0.081946,0.307975,0.844413,-0.063517331234.01,1.226131,-1.394841,2.288974,-2.756642,-1.948485,-0.353725,0.164754,0.98456,-0.059146,0.369761,0.729826,0.175967331234.02,1.366278,-1.406463,2.444165,-2.887407,-1.050773,-0.438733,0.160185,0.986528,-0.033225,0.361834,0.61505,0.204871331234.03,1.541367,-1.415034,2.62416,-2.983638,-0.089307,-0.544987,0.155066,0.987894,-0.004565,0.244409,0.369971,0.104769331234.04,1.72401,-1.419518,2.813346,-2.843802,-0.627829,-0.655318,0.148936,0.988579,0.022999,0.03542,0.244392,-0.385655331234.05,1.903558,-1.418967,3.006391,-2.889971,-1.280197,-0.636662,0.14295,0.988496,0.049405,-0.006689,0.157622,-0.450574331234.07,2.238339,-1.399892,-2.907532,-3.245262,-1.433516,-0.586976,0.133566,0.985431,0.105285,-0.057486,-0.024997,-0.223694331234.06,2.079985,-1.411849,-3.083167,-3.100622,-1.545765,-0.567224,0.138199,0.987395,0.077156,-0.032883,0.059068,-0.345604331234.08,2.381764,-1.382563,-2.749642,-3.266331,-1.147978,-0.636073,0.128891,0.982336,0.135656,-0.076416,-0.128058,-0.137243331234.1,2.584996,-1.344757,-2.517616,-2.744031,-1.096076,-0.800378,0.118402,0.974562,0.190291,-0.093988,-0.31439,-0.198057331234.09,2.495706,-1.363428,-2.621051,-3.048373,-1.274961,-0.723478,0.123924,0.978576,0.164413,-0.100745,-0.211959,-0.202178331234.11,2.654797,-1.327103,-2.435747,-2.413172,-1.013531,-0.752896,0.112874,0.970453,0.21326,-0.132314,-0.473841,-0.191928331234.12,2.699293,-1.31026,-2.377584,-2.103258,-1.246178,-0.470805,0.110257,0.966252,0.23281,-0.228787,-0.610722,-0.277732331234.13,2.724803,-1.293802,-2.338229,-1.895828,-1.223828,-0.212803,0.110706,0.961882,0.250055,-0.249012,-0.680281,-0.294428331234.14,2.741062,-1.27851,-2.309689,-1.681613,-1.100063,-0.105602,0.112349,0.957588,0.265337,-0.204344,-0.678565,-0.280642331234.15,2.750462,-1.265326,-2.288986,-1.385992,-1.032226,-0.04666,0.114653,0.953706,0.278029,-0.127455,-0.697648,-0.275161331234.16,2.755599,-1.2551,-2.272763,-1.064462,-1.045084,-0.083323,0.116889,0.95058,0.287635,-0.064505,-0.684132,-0.310935331234.17,2.758058,-1.24802,-2.259356,-0.736279,-1.029295,-0.140302,0.118697,0.948358,0.294155,-0.004561,-0.695627,-0.3331234.18,2.75846,-1.244469,-2.248527,-0.37159,-0.974217,-0.207758,0.119837,0.947226,0.297325,0.037665,-0.701834,-0.279213331234.19,2.757984,-1.244299,-2.239429,-0.046266,-0.899891,-0.284158,0.120038,0.947172,0.297417,0.090731,-0.710111,-0.302178331234.2,2.756387,-1.247299,-2.232085,0.269274,-0.854263,-0.349879,0.119445,0.948129,0.294591,0.1037,-0.700952,-0.325078331234.21,2.753534,-1.253566,-2.226268,0.599746,-0.840752,-0.429254,0.118034,0.950103,0.288742,0.104973,-0.67543,-0.303452331234.22,2.749109,-1.263259,-2.222175,0.941937,-0.835811,-0.509568,0.115783,0.953082,0.279695,0.082429,-0.659442,-0.237001331234.23,2.743685,-1.276378,-2.219486,1.272657,-0.795775,-0.610376,0.112443,0.956971,0.267513,0.065734,-0.647629,-0.158184331234.24,2.737853,-1.29286,-2.217853,1.591782,-0.726956,-0.717778,0.10779,0.961624,0.252312,0.05934,-0.641571,-0.073601331234.25,2.73099,-1.312552,-2.218285,1.905453,-0.618448,-0.790112,0.101939,0.96684,0.234156,0.068181,-0.637845,0.024465331234.26,2.720615,-1.335197,-2.223752,2.223027,-0.47755,-0.79631,0.09539,0.972375,0.213045,0.079537,-0.644311,0.127317331234.27,2.70234,-1.360587,-2.238809,2.550934,-0.321412,-0.748009,0.088737,0.977987,0.188856,0.068657,-0.617849,0.235079331234.28,2.66947,-1.388387,-2.270261,2.86138,-0.172386,-0.650722,0.082496,0.98341,0.161555,0.049538,-0.5489,0.365102331234.29,2.613429,-1.416924,-2.326297,3.001716,-0.040735,-0.508954,0.077238,0.988185,0.132381,0.008349,-0.413524,0.490285331234.3,2.52294,-1.443193,-2.41836,2.877824,0.104974,-0.283045,0.073802,0.99187,0.103672,-0.02656,-0.24309,0.593579331234.31,2.401156,-1.463476,-2.542769,2.352656,0.192904,-0.097834,0.072261,0.994247,0.079069,-0.026927,0.104264,0.723085331234.32,2.282634,-1.475183,-2.662326,1.454151,-0.04472,0.040261,0.072285,0.995432,0.062362,0.093517,0.582342,0.81305331234.33,2.213484,-1.478326,-2.726257,0.41004,-0.757665,0.157169,0.073916,0.995728,0.055343,0.270429,1.091339,0.855408331234.34,2.215028,-1.475577,-2.711555,-0.484503,-1.468844,0.110944,0.076019,0.99547,0.057101,0.419556,1.531843,0.883634331234.35,2.269654,-1.469839,-2.640802,-1.015768,-1.592778,0.005248,0.077159,0.994908,0.06484,0.528584,1.576366,0.871302331234.36,2.344003,-1.462297,-2.551931,-1.247884,-1.336863,-0.101124,0.077498,0.99412,0.075631,0.38434,0.965887,0.762473331234.37,2.426267,-1.454344,-2.4578,-1.3323,-1.087043,-0.263846,0.076204,0.993227,0.087709,0.260466,0.372068,0.671324331234.38,2.511477,-1.445745,-2.361638,-1.433519,-1.030086,-0.410116,0.073493,0.992191,0.100773,0.167779,-0.107197,0.586254331234.39,2.595389,-1.4361,-2.266542,-1.510757,-1.043294,-0.511118,0.069756,0.990942,0.114751,0.048515,-0.417837,0.556773331234.4,2.666725,-1.425319,-2.184817,-1.505473,-0.925613,-0.447363,0.066281,0.989437,0.128925,-0.011013,-0.576793,0.523495331234.41,2.715751,-1.413753,-2.128796,-1.36305,-0.512638,-0.164418,0.064606,0.987694,0.142431,0.262283,-0.237114,0.512766331234.42,2.726146,-1.404642,-2.118726,-0.718321,0.250145,0.351417,0.066751,0.986228,0.151322,0.395178,0.502709,0.283142331234.43,2.713155,-1.398008,-2.140717,-0.456315,1.059716,0.673712,0.071428,0.985109,0.15639,0.207487,0.926573,-0.069933331234.44,2.703468,-1.388835,-2.162546,-0.742727,1.142088,0.75852,0.07677,0.983491,0.163867,0.225583,0.829513,-0.327228331234.46,2.668083,-1.368795,-2.206741,-0.62306,0.054392,0.810905,0.09149,0.979667,0.178556,0.29883,-0.178275,-0.510068331234.45,2.688764,-1.37842,-2.18435,-0.763731,0.497528,0.843572,0.083649,0.981553,0.171922,0.374268,0.161376,-0.519502331234.47,2.643927,-1.363482,-2.230202,-0.092031,-0.199936,0.62091,0.098259,0.978587,0.180865,0.076652,-0.331935,-0.636508331234.48,2.613386,-1.364076,-2.256143,0.421732,-0.623044,0.375752,0.103443,0.978709,0.177278,-0.002903,-0.612483,-0.793473331234.49,2.586621,-1.369006,-2.275283,0.704804,-0.836538,-0.047164,0.105607,0.979709,0.170343,-0.053392,-0.707538,-0.347025331234.5,2.571435,-1.381802,-2.28604,1.412624,-0.256922,-0.664173,0.101406,0.982194,0.158153,-0.220455,-0.657853,-0.040676331234.51,2.559357,-1.405091,-2.303766,2.37588,0.783753,-1.103104,0.090704,0.986302,0.13777,-0.489385,-0.427983,-0.024962331234.52,2.526099,-1.435667,-2.349039,3.094215,1.246288,-1.165505,0.077781,0.990884,0.109996,-0.671272,0.073493,-0.361888331234.53,2.433761,-1.468322,-2.455792,3.430526,1.404504,-0.950568,0.066511,0.994754,0.077721,-0.679044,0.446759,-0.570488331234.54,2.236761,-1.495697,-2.665647,3.136487,1.100468,-0.58811,0.058997,0.997181,0.046354,-0.584052,0.540004,-0.527296331234.55,1.929783,-1.510872,-2.978633,2.395274,0.342744,-0.16198,0.056071,0.998205,0.02104,-0.427912,0.554194,-0.392561331234.56,1.588737,-1.513143,2.96383,1.947514,-0.186682,0.240393,0.057613,0.998338,0.001034,-0.246181,0.435225,-0.208721331234.57,1.267479,-1.50642,2.643749,2.096854,-0.154007,0.417776,0.061395,0.997929,-0.019215,-0.087976,0.194698,-0.013271331234.58,1.009254,-1.492801,2.384379,2.286602,0.154937,0.454799,0.065951,0.99696,-0.04149,0.087324,0.001087,0.052812331234.59,0.826818,-1.477344,2.195855,2.204141,0.665108,0.147159,0.06866,0.995637,-0.063196,0.330052,-0.097077,0.193048331234.6,0.685454,-1.462446,2.04499,2.13026,0.930144,-0.136173,0.068454,0.994136,-0.083713,0.486844,-0.145534,0.183948331234.61,0.578266,-1.445942,1.927175,2.166661,1.012305,-0.111546,0.068065,0.992216,-0.104283,0.412449,-0.26663,0.114797331234.62,0.508043,-1.428129,1.844548,2.077006,1.244637,-0.001986,0.069168,0.98984,-0.124226,0.332459,-0.376956,0.086094331234.63,0.462861,-1.4108,1.784729,1.931329,1.453119,0.019602,0.071136,0.987228,-0.142551,0.195344,-0.342147,0.052692331234.64,0.434432,-1.394326,1.74095,1.777378,1.476214,0.063035,0.07389,0.98447,-0.159248,0.052666,-0.208041,-0.053109331234.65,0.413585,-1.379397,1.706566,1.583585,1.229122,0.024721,0.076454,0.981739,-0.174194,-0.039756,-0.028553,-0.155747331234.66,0.392031,-1.366269,1.675067,1.431453,0.844987,-0.083286,0.077599,0.979157,-0.187696,-0.075295,0.105483,-0.169696331234.67,0.36677,-1.353961,1.64243,1.414598,0.632002,-0.216257,0.07715,0.976583,-0.200831,-0.076249,0.120966,-0.030752331234.68,0.339842,-1.341186,1.608202,1.495292,0.677222,-0.28189,0.075867,0.973755,-0.214581,-0.085633,0.023925,0.155026331234.69,0.317676,-1.327669,1.576693,1.535423,0.925768,-0.25026,0.075197,0.97059,-0.228693,-0.10956,-0.093835,0.297419331234.7,0.304773,-1.31393,1.551934,1.493786,1.176163,-0.129658,0.076235,0.967191,-0.242343,-0.090456,-0.205762,0.383761331234.71,0.30086,-1.300464,1.534762,1.407797,1.297771,0.010167,0.079139,0.963682,-0.255056,-0.088843,-0.25868,0.380026331234.72,0.303108,-1.287578,1.52358,1.309948,1.312559,0.114975,0.083412,0.960161,-0.266708,-0.10398,-0.258379,0.347671331234.73,0.308022,-1.275058,1.515302,1.273219,1.285227,0.161719,0.088359,0.956587,-0.277729,-0.115169,-0.22647,0.333881331234.74,0.31292,-1.262359,1.507873,1.294033,1.174397,0.182523,0.09345,0.952809,-0.288828,-0.118658,-0.19019,0.271448331234.75,0.31556,-1.249254,1.500772,1.337576,0.850243,0.205239,0.09808,0.948749,-0.300426,-0.096554,-0.151905,0.179729331234.76,0.313896,-1.235422,1.494052,1.418872,0.340462,0.23205,0.101622,0.944287,-0.313041,-0.056716,-0.119275,0.057945331234.77,0.306946,-1.220357,1.487311,1.550335,-0.185498,0.251873,0.103731,0.939222,-0.327264,-0.006746,-0.066373,0.006448331234.78,0.296005,-1.204072,1.4805,1.667577,-0.531288,0.258214,0.104592,0.933507,-0.342966,0.044257,-0.006597,0.053247331234.79,0.284124,-1.18691,1.47361,1.746686,-0.518775,0.248189,0.104986,0.927216,-0.359511,0.055994,0.049346,0.219145331234.8,0.274744,-1.169423,1.46619,1.783583,-0.15346,0.192949,0.105993,0.920525,-0.376031,0.058009,0.044868,0.485802331234.82,0.268082,-1.136587,1.45092,1.54647,0.622128,0.141552,0.111434,0.907203,-0.405666,0.02678,0.027444,0.711071331234.81,0.26903,-1.152259,1.457989,1.735372,0.29313,0.136722,0.108026,0.913684,-0.391805,0.03858,0.047833,0.669561331234.83,0.2715,-1.123234,1.447011,1.275063,0.706545,0.21901,0.116059,0.901505,-0.416917,0.02742,0.014877,0.621385331234.84,0.277742,-1.112019,1.446671,1.033942,0.639578,0.316409,0.121424,0.896594,-0.425881,0.008261,0.053143,0.483681331234.85,0.285692,-1.102742,1.448953,0.816708,0.590382,0.366983,0.127144,0.892448,-0.432864,-0.029762,0.156868,0.395861331234.86,0.29518,-1.095411,1.452152,0.620906,0.713402,0.341412,0.133145,0.889117,-0.437886,-0.088925,0.321043,0.420613331234.87,0.306185,-1.089801,1.455187,0.456375,0.867082,0.287191,0.139457,0.886535,-0.441144,-0.121528,0.453538,0.531354331234.88,0.317515,-1.086271,1.458361,0.234607,0.843945,0.239413,0.145422,0.884896,-0.442506,-0.150839,0.502128,0.510285331234.89,0.328389,-1.085097,1.462333,-0.0069,0.701526,0.206773,0.150561,0.884349,-0.441881,-0.193224,0.495214,0.412508331234.91,0.347701,-1.088151,1.471901,-0.310283,0.477963,0.130061,0.158144,0.88577,-0.43635,-0.269854,0.448946,0.412363331234.9,0.338464,-1.085952,1.467034,-0.196052,0.567474,0.171361,0.154753,0.884747,-0.439629,-0.244918,0.466876,0.387276331234.92,0.35629,-1.091262,1.476929,-0.396878,0.394893,0.108202,0.160924,0.88721,-0.432391,-0.237813,0.439236,0.458956331234.93,0.365088,-1.095306,1.483001,-0.516816,0.328176,0.128712,0.16344,0.889068,-0.427604,-0.167514,0.42276,0.513404331234.94,0.376488,-1.100924,1.492822,-0.763514,0.243249,0.250676,0.166465,0.891626,-0.421061,-0.127692,0.399832,0.555186331234.95,0.392411,-1.10946,1.508297,-1.172039,0.209746,0.337972,0.170231,0.895458,-0.41131,-0.201268,0.408604,0.496347331234.96,0.410056,-1.122509,1.526264,-1.633274,0.1118,0.155931,0.172789,0.901191,-0.397492,-0.263609,0.58825,0.41565331234.97,0.424711,-1.140179,1.543442,-2.026144,-0.153227,-0.112564,0.172006,0.908708,-0.380346,-0.31318,0.74507,0.283834331234.98,0.439396,-1.162455,1.561516,-2.462423,-0.168166,-0.310655,0.168918,0.917781,-0.359368,-0.328205,0.666417,0.210778331235,0.486166,-1.218879,1.616098,-3.323303,-0.352492,-0.330421,0.161057,0.938713,-0.304759,-0.138214,0.178764,0.100459331234.99,0.459086,-1.188939,1.584161,-2.893073,-0.123629,-0.373273,0.16513,0.927974,-0.334061,-0.268478,0.430196,0.194473331235.01,0.526533,-1.251334,1.666039,-3.751931,-0.861276,-0.201286,0.157825,0.949404,-0.271519,0.096752,-0.042315,-0.003628331235.02,0.586485,-1.280697,1.741228,-3.996337,-1.377677,-0.013923,0.158309,0.958215,-0.238246,0.396836,-0.21705,-0.23856331235.03,0.657089,-1.312235,1.829503,-3.964536,-1.420509,0.143443,0.156179,0.966759,-0.202449,0.39271,-0.092064,-0.211125331235.04,0.750161,-1.339707,1.937155,-3.754694,-1.04301,0.23916,0.156148,0.973418,-0.167559,0.340709,0.12578,-0.135648331235.05,0.866619,-1.362184,2.064119,-3.52758,-0.670003,0.306213,0.157842,0.978319,-0.13408,0.322108,0.338331,-0.008346331235.06,1.004926,-1.379673,2.210404,-3.363649,-0.470981,0.317718,0.160351,0.981791,-0.101848,0.2914,0.53658,0.111049331235.07,1.160392,-1.392685,2.37242,-3.218413,-0.369681,0.210836,0.162458,0.98418,-0.070688,0.205965,0.671734,0.144174331235.08,1.303302,-1.403204,2.526194,-2.723459,-1.089347,-0.23219,0.160876,0.985989,-0.04409,0.070416,0.903552,-0.195213331235.09,1.424631,-1.412442,2.664444,-2.350691,-1.555834,-0.48592,0.156012,0.987488,-0.022967,0.100702,0.835113,0.000705331235.1,1.561414,-1.419592,2.815819,-2.432209,-1.191321,-0.5518,0.150622,0.98859,-0.001413,0.213911,0.66769,0.069071331235.11,1.720842,-1.424653,2.986963,-2.536727,-0.956574,-0.746685,0.143987,0.98934,0.021768,0.241358,0.587442,-0.152445331235.12,1.903024,-1.426927,-3.102316,-2.734203,-1.03181,-0.930765,0.135534,0.989669,0.046761,0.122798,0.420839,-0.436547331235.13,2.091322,-1.422941,-2.89764,-2.96733,-1.569082,-0.836143,0.127806,0.989089,0.073266,0.041719,0.187409,-0.529306331235.14,2.264062,-1.410951,-2.702915,-3.207201,-2.11246,-0.697783,0.122424,0.987252,0.101715,-0.002124,0.073829,-0.448761331235.15,2.406451,-1.393483,-2.536879,-3.39321,-2.093524,-0.651413,0.118301,0.984321,0.130832,-0.033385,-0.02967,-0.225909331235.16,2.526793,-1.370902,-2.396053,-3.434495,-1.705309,-0.660423,0.114532,0.980088,0.162207,-0.054504,-0.145142,-0.11051331235.17,2.621185,-1.34666,-2.28451,-3.283798,-1.438201,-0.688767,0.110518,0.974986,0.192841,-0.067091,-0.229213,-0.08989331235.18,2.691599,-1.323086,-2.197652,-2.966556,-1.421083,-0.708474,0.106645,0.969476,0.220776,-0.078935,-0.292459,-0.11218331235.19,2.742643,-1.301878,-2.130253,-2.558892,-1.416784,-0.691049,0.103207,0.964059,0.244825,-0.113476,-0.361901,-0.102307331235.2,2.779092,-1.283152,-2.07834,-2.201576,-1.341603,-0.615553,0.100602,0.958915,0.265258,-0.10199,-0.464789,-0.172957331235.21,2.805679,-1.266924,-2.037163,-1.868668,-1.28145,-0.566917,0.098631,0.954185,0.282494,-0.081999,-0.504066,-0.215202331235.22,2.824289,-1.253299,-2.003965,-1.555396,-1.328904,-0.511721,0.097405,0.95002,0.296606,-0.073617,-0.55706,-0.262945331235.24,2.844319,-1.233957,-1.95577,-0.933282,-1.239547,-0.438228,0.09681,0.943804,0.31601,-0.036446,-0.646929,-0.302094331235.23,2.836136,-1.242227,-1.977619,-1.240872,-1.310207,-0.450307,0.097042,0.946505,0.307752,-0.058712,-0.60161,-0.264738331235.25,2.850278,-1.228508,-1.93711,-0.634079,-1.156161,-0.441209,0.096401,0.941989,0.321502,0.002842,-0.692661,-0.335067331235.26,2.854126,-1.22612,-1.921027,-0.299748,-1.131612,-0.458653,0.095801,0.941185,0.324027,0.051126,-0.741997,-0.345328331235.27,2.855661,-1.227319,-1.907175,0.077203,-1.175566,-0.497942,0.094985,0.941589,0.323091,0.089143,-0.798767,-0.35521331235.28,2.855259,-1.232162,-1.894949,0.442495,-1.208864,-0.54377,0.093825,0.943209,0.318674,0.123109,-0.828814,-0.303674331235.3,2.848855,-1.253283,-1.87659,1.232975,-1.188025,-0.609544,0.090094,0.950015,0.298924,0.121148,-0.68706,-0.055805331235.29,2.853212,-1.24079,-1.884483,0.83782,-1.198518,-0.588402,0.092159,0.94604,0.310668,0.14217,-0.795589,-0.183104331235.31,2.842349,-1.269696,-1.871577,1.644399,-1.116835,-0.637135,0.087429,0.955011,0.283392,0.122075,-0.66166,0.070292331235.32,2.834973,-1.290702,-1.869535,2.127213,-0.88301,-0.715847,0.083442,0.961029,0.263553,0.107491,-0.615357,0.220364331235.33,2.825942,-1.315666,-1.870057,2.484225,-0.853405,-0.767278,0.078345,0.96763,0.239903,0.078973,-0.531031,0.184825331235.34,2.813021,-1.343401,-1.874146,2.741423,-0.933219,-0.796825,0.072748,0.974257,0.213381,0.029379,-0.376234,0.235579331235.35,2.794264,-1.372399,-1.883483,2.835068,-0.966386,-0.772417,0.06709,0.980384,0.185329,0.023334,-0.162909,0.334096331235.36,2.771432,-1.399905,-1.897893,2.607666,-0.835237,-0.705394,0.061522,0.985434,0.158542,0.082445,0.096384,0.451641331235.37,2.751929,-1.421705,-1.910667,1.921069,-0.649166,-0.587021,0.056427,0.988906,0.137405,0.153534,0.36525,0.600266331235.38,2.741547,-1.434741,-1.915783,1.012766,-0.507828,-0.38823,0.052825,0.990759,0.124927,0.225205,0.697214,0.725873331235.39,2.739818,-1.439384,-1.912458,0.238286,-0.520297,-0.169654,0.051241,0.991378,0.1206,0.34387,0.927049,0.692632331235.4,2.748329,-1.438293,-1.897195,-0.302743,-0.732994,-0.149171,0.050627,0.991234,0.12203,0.273363,0.462669,0.489817331235.41,2.76168,-1.434259,-1.875197,-0.524387,-0.868691,-0.120797,0.050476,0.990693,0.126408,0.078979,-0.184144,0.375377331235.42,2.77886,-1.430269,-1.849465,-0.478626,-0.808652,-0.21988,0.049699,0.990142,0.130951,-0.000429,-0.337646,0.237335331235.43,2.801984,-1.428968,-1.820804,-0.169686,-0.396749,-0.377527,0.047087,0.989959,0.13328,-0.040328,-0.410491,0.168157331235.44,2.825079,-1.432839,-1.799649,0.441752,0.446054,-0.384354,0.042804,0.990499,0.130689,0.097821,-0.442312,0.091906331235.45,2.819006,-1.440465,-1.815101,0.863013,1.020469,0.091663,0.041201,0.991519,0.123259,0.406965,0.081403,-0.14955331235.46,2.773946,-1.445857,-1.868632,0.65761,0.677499,0.577803,0.044789,0.992205,0.116287,0.549114,0.932844,-0.489655331235.47,2.714488,-1.444165,-1.927667,-0.098066,-0.414297,0.777388,0.052315,0.991993,0.114948,0.447044,1.273251,-0.502537331235.48,2.68072,-1.43348,-1.94887,-1.069183,-1.455077,0.681308,0.060877,0.990587,0.122603,0.197302,0.975935,-0.061934331235.49,2.68007,-1.420844,-1.939174,-1.159565,-0.819208,0.34866,0.066525,0.988778,0.133761,0.004016,0.33541,0.251432331235.5,2.690863,-1.413297,-1.922387,-0.669781,-0.612474,0.031982,0.068327,0.987623,0.141184,-0.059507,-0.258878,-0.068888331235.51,2.691866,-1.410709,-1.910908,-0.196134,-1.204077,-0.061395,0.069296,0.987213,0.143554,-0.088827,-0.648346,-0.197112331235.52,2.677995,-1.412092,-1.908937,0.188959,-1.6821,-0.106772,0.07067,0.987433,0.141358,-0.129645,-0.687552,-0.174683331235.53,2.66671,-1.415179,-1.905216,0.23985,-1.391792,-0.213982,0.070867,0.987916,0.13784,-0.234349,-0.47545,-0.066215331235.54,2.664528,-1.418287,-1.900474,0.284724,-0.450298,-0.210035,0.069757,0.988393,0.134956,-0.378198,-0.281667,0.00428331235.55,2.658321,-1.423686,-1.90677,0.602161,0.129385,-0.134278,0.068113,0.989199,0.129794,-0.369993,-0.120379,-0.219515331235.56,2.64399,-1.429996,-1.925999,0.700086,0.557322,-0.037554,0.066985,0.990104,0.123317,-0.178893,-0.026145,-0.104304331235.57,2.629663,-1.435283,-1.945764,0.553419,0.473603,-0.019361,0.06618,0.990832,0.11778,-0.036563,0.18559,0.008136331235.58,2.619011,-1.439468,-1.957564,0.42411,-0.039442,-0.097949,0.06536,0.991389,0.113474,0.019768,0.359228,0.040304331235.59,2.611935,-1.444481,-1.960736,0.481399,-0.483159,-0.261607,0.06365,0.992033,0.108718,0.051813,0.393542,0.059281331235.6,2.609801,-1.450935,-1.957417,0.553651,-0.540677,-0.39,0.060634,0.992825,0.103061,0.040029,0.297015,0.058941331235.61,2.612289,-1.457778,-1.950301,0.550025,-0.432126,-0.426664,0.056945,0.99362,0.097346,0.023301,0.134554,0.050436331235.62,2.618224,-1.46471,-1.940918,0.555918,-0.308552,-0.44407,0.052923,0.994378,0.091713,0.053538,0.008506,0.073814331235.63,2.625762,-1.472003,-1.931226,0.602314,-0.18825,-0.454707,0.048651,0.995124,0.085799,0.082437,-0.104072,0.068269331235.64,2.633491,-1.479727,-1.921661,0.64397,-0.191596,-0.459672,0.044246,0.995856,0.079454,0.103459,-0.205161,0.028685331235.65,2.638284,-1.487301,-1.914191,0.627273,-0.294707,-0.41466,0.040225,0.996516,0.073056,0.11427,-0.261882,-0.011533331235.66,2.641732,-1.494081,-1.906999,0.550776,-0.400839,-0.368025,0.036734,0.997059,0.067263,0.108423,-0.28957,-0.021594331235.67,2.644092,-1.500012,-1.900206,0.486183,-0.455806,-0.319306,0.033752,0.997496,0.062152,0.083237,-0.321348,0.018857331235.68,2.644956,-1.505213,-1.894714,0.42814,-0.467064,-0.269594,0.031226,0.99785,0.057619,0.062585,-0.355547,0.090193331235.69,2.641529,-1.509493,-1.893078,0.354777,-0.534644,-0.195287,0.029375,0.998122,0.053763,0.078886,-0.37802,0.151086331235.7,2.631551,-1.512622,-1.896879,0.267306,-0.651183,-0.112413,0.028386,0.998308,0.050742,0.100322,-0.365999,0.211999331235.71,2.617021,-1.514922,-1.90506,0.21263,-0.62195,-0.065998,0.02797,0.998439,0.048337,0.111099,-0.319194,0.305042331235.72,2.605254,-1.517065,-1.912157,0.211345,-0.409838,-0.0816,0.027443,0.998557,0.046165,0.084999,-0.289313,0.393716331235.73,2.593861,-1.519673,-1.921363,0.263546,-0.166955,-0.097896,0.026611,0.998694,0.043625,0.057801,-0.289404,0.350845331235.74,2.583535,-1.522363,-1.93085,0.243613,-0.072009,-0.100492,0.025637,0.998827,0.041069,0.083204,-0.275179,0.251136331235.75,2.578754,-1.524231,-1.935327,0.146492,-0.012928,-0.074825,0.024838,0.998916,0.039368,0.105701,-0.260406,0.260528331235.76,2.57521,-1.525545,-1.939405,0.122055,0.072605,-0.049671,0.024273,0.998976,0.038172,0.099354,-0.24121,0.301717331235.77,2.567081,-1.526959,-1.948632,0.147786,0.120566,-0.042118,0.023815,0.999039,0.036788,0.084202,-0.205216,0.336091331235.78,2.555295,-1.528574,-1.961821,0.173474,0.142896,-0.040893,0.023354,0.999109,0.035161,0.062751,-0.169641,0.363124331235.79,2.53655,-1.530141,-1.981699,0.177348,0.091887,-0.010808,0.023118,0.999174,0.033429,0.042693,-0.160276,0.34206331235.81,2.464569,-1.532613,-2.052475,0.194115,-0.14976,0.063744,0.023915,0.999271,0.029755,0.026179,-0.086109,0.38472331235.8,2.506736,-1.531471,-2.011498,0.179802,-0.035822,0.031242,0.023317,0.999227,0.031655,0.045028,-0.141042,0.330207331235.82,2.411334,-1.533599,-2.10393,0.195926,-0.184782,0.091628,0.024807,0.999308,0.027706,-0.012112,-0.01858,0.399968331235.83,2.375022,-1.53338,-2.13883,0.014454,-0.126516,0.119765,0.025948,0.9993,0.026944,-0.058282,0.055891,0.393008331235.84,2.378346,-1.530927,-2.13496,-0.255702,-0.031565,0.176915,0.027553,0.999205,0.028802,-0.07983,0.144105,0.381263331235.85,2.417845,-1.525427,-2.095547,-0.629864,0.022363,0.278127,0.030033,0.998971,0.033985,-0.053166,0.169623,0.355816331235.86,2.490058,-1.51524,-2.023158,-1.165734,-0.030833,0.399607,0.033672,0.998457,0.044153,-0.00201,0.100649,0.364554331235.87,2.563735,-1.4992,-1.947767,-1.75274,-0.21247,0.592569,0.039075,0.997438,0.059921,0.040744,-0.022524,0.273026331235.88,2.619946,-1.475756,-1.887783,-2.466384,-0.381407,0.884757,0.047288,0.995487,0.082276,0.095992,-0.153705,0.200118331235.89,2.656959,-1.44362,-1.847995,-3.246773,-0.194433,1.277788,0.05909,0.991924,0.112229,0.171333,-0.266292,0.228897331235.9,2.676489,-1.40302,-1.828752,-3.935335,0.13879,1.737378,0.074898,0.985958,0.149252,0.213173,-0.369656,0.167749331235.91,2.683365,-1.355892,-1.825109,-4.377326,0.359032,2.145006,0.094335,0.976997,0.191255,0.218089,-0.401359,-0.027924331235.92,2.68222,-1.3046,-1.831272,-4.616274,0.558191,2.51176,0.116639,0.964779,0.235792,0.170547,-0.349254,-0.261427331235.93,2.677571,-1.251719,-1.842494,-4.624984,0.611686,2.707988,0.140391,0.949525,0.280521,0.105275,-0.26967,-0.41991331235.94,2.672557,-1.200694,-1.851312,-4.385661,0.215103,2.489185,0.163503,0.93229,0.322648,0.114756,-0.106759,-0.554459331235.95,2.674063,-1.153835,-1.847346,-4.289809,-0.312874,1.825344,0.182519,0.914324,0.361523,0.076575,0.273497,-0.584484331235.96,2.687316,-1.108038,-1.832947,-4.44621,0.195764,1.409221,0.195894,0.894825,0.401142,0.219313,0.697522,-0.151401331235.97,2.707232,-1.064998,-1.814937,-4.170379,0.406853,1.010582,0.203895,0.874788,0.439514,0.241753,0.966017,0.014053331235.98,2.72201,-1.030239,-1.798671,-3.308588,-0.091976,0.577563,0.209643,0.857422,0.469976,0.260282,1.106934,-0.104894331235.99,2.735691,-1.004656,-1.778,-2.673498,-0.437494,-0.168613,0.211788,0.843977,0.492796,0.055592,1.186586,-0.35591331236,2.752797,-0.983827,-1.753309,-2.417009,-0.324792,-0.44967,0.209947,0.832623,0.512505,0.029845,0.761692,-0.261605331236.02,2.777119,-0.948248,-1.718998,-1.674083,-0.121646,-0.200357,0.207853,0.812395,0.544803,-0.092283,-0.359606,-0.282627331236.01,2.766887,-0.964238,-1.733407,-2.17779,-0.210195,-0.262142,0.208635,0.821615,0.530491,-0.08716,-0.063115,-0.290074331236.03,2.787601,-0.938015,-1.707558,-1.039229,0.208686,-0.296187,0.205002,0.806386,0.554722,0.163421,-0.460606,-0.092625331236.04,2.79971,-0.933966,-1.698036,-0.434038,0.516447,-0.433849,0.199363,0.803985,0.560235,0.34359,-0.653792,0.024436331236.05,2.813994,-0.936168,-1.688732,0.187494,0.735106,-0.659723,0.190771,0.805292,0.561347,0.363154,-0.684794,0.00718331236.06,2.831174,-0.945163,-1.678711,0.836039,0.991914,-0.912169,0.178879,0.810592,0.557622,0.322021,-0.582901,0.059092331236.07,2.852318,-0.960621,-1.66799,1.456663,1.331298,-1.102113,0.163456,0.819547,0.549203,0.20361,-0.50012,0.180441331236.08,2.876212,-0.981698,-1.657324,2.013123,1.574551,-1.174872,0.145724,0.831442,0.536161,0.117795,-0.465368,0.227617331236.09,2.900139,-1.007487,-1.64782,2.507257,1.599993,-1.148216,0.127684,0.845493,0.518497,0.059145,-0.527118,0.20924331236.1,2.921398,-1.03717,-1.639381,2.904162,1.334717,-1.10124,0.111101,0.860968,0.496377,-0.018953,-0.535941,0.138587331236.11,2.937291,-1.069443,-1.632288,3.16544,0.851532,-1.003536,0.097508,0.876933,0.470618,-0.080266,-0.53097,0.047311331236.12,2.946176,-1.103122,-1.626974,3.312078,0.279188,-0.890546,0.087537,0.892619,0.442231,-0.119,-0.503932,-0.015702331236.13,2.947961,-1.137561,-1.623492,3.397032,-0.272858,-0.79951,0.080781,0.907612,0.411964,-0.098894,-0.456807,0.017418331236.14,2.942399,-1.17231,-1.623155,3.449006,-0.67838,-0.653683,0.076782,0.921649,0.380351,-0.057159,-0.47507,0.1032331236.15,2.928007,-1.207321,-1.629838,3.530989,-0.854138,-0.414327,0.075359,0.934667,0.347446,-0.012691,-0.517431,0.203198331236.17,2.864617,-1.276286,-1.678545,3.552699,-0.824101,0.138865,0.079374,0.956944,0.279208,0.0506,-0.397893,0.25813331236.16,2.903037,-1.242326,-1.647072,3.579122,-0.886747,-0.149007,0.076229,0.946537,0.313459,0.020344,-0.495228,0.25432331236.18,2.809939,-1.308157,-1.727558,3.442248,-0.749714,0.390733,0.084537,0.965708,0.245482,0.070736,-0.204676,0.215532331236.19,2.740391,-1.338064,-1.791138,3.363429,-0.814741,0.350716,0.09007,0.97304,0.212323,0.132037,0.013685,0.091189331236.2,2.665362,-1.36787,-1.859639,3.357685,-0.814989,-0.034791,0.092391,0.979481,0.179111,0.331453,0.223736,0.021038331236.21,2.585229,-1.39894,-1.933936,3.432381,-0.676746,-0.406134,0.090312,0.985269,0.14522,0.395162,0.15499,-0.011156331236.22,2.484401,-1.428992,-2.030863,3.309855,-0.450777,-0.477291,0.086338,0.989963,0.111892,0.234204,-0.014209,-0.012039331236.23,2.353741,-1.454793,-2.160008,2.954037,-0.20333,-0.457654,0.082043,0.993279,0.081642,0.157535,-0.126336,0.005303331236.24,2.194126,-1.47523,-2.318863,2.50493,-0.176658,-0.486211,0.077476,0.995437,0.055701,0.178429,-0.126068,-0.019324331236.25,2.007675,-1.490962,-2.503159,2.108912,-0.332781,-0.562868,0.072259,0.996815,0.033743,0.261558,-0.061558,0.004755331236.26,1.789611,-1.503248,-2.71688,1.836873,-0.551417,-0.690573,0.065888,0.997719,0.014652,0.352767,-0.010888,0.107556331236.27,1.523456,-1.512772,-2.977289,1.687241,-0.627692,-0.848607,0.057927,0.998317,-0.002744,0.381602,0.019154,0.21124331236.28,1.197009,-1.518605,2.98397,1.600066,-0.456476,-0.963067,0.048566,0.998638,-0.019049,0.402072,0.001652,0.314306331236.29,0.851409,-1.519391,2.641602,1.420205,-0.355899,-0.989499,0.038651,0.998679,-0.033857,0.357864,-0.079673,0.323088331236.3,0.573874,-1.51698,2.368435,1.011141,-0.554717,-0.907046,0.029202,0.998552,-0.045173,0.321781,-0.158281,0.261817331236.31,0.398805,-1.51553,2.202183,0.390722,-1.040958,-0.668608,0.02145,0.998473,-0.050903,0.279102,-0.111358,0.101791331236.32,0.321456,-1.51886,2.138678,-0.403067,-1.518847,-0.365507,0.016402,0.998652,-0.049253,0.204897,0.034796,0.018629331236.33,0.331867,-1.528421,2.163073,-1.079342,-1.236242,-0.152306,0.013802,0.999102,-0.040051,0.102424,0.276761,0.177304331236.34,0.411551,-1.536959,2.240799,-0.76067,0.792064,0.005564,0.013534,0.999428,-0.031006,-0.06494,0.385323,0.516068331236.35,0.48282,-1.538533,2.292868,-0.095995,2.11949,0.102373,0.014977,0.99948,-0.02857,-0.22477,0.363039,0.119177331236.36,0.573176,-1.541107,2.366196,-0.502522,1.442081,0.04749,0.016098,0.999559,-0.024941,0.000824,0.263151,-0.701637331236.37,0.888907,-1.550088,2.683049,-1.444648,-0.708651,-0.01508,0.016077,0.999786,-0.013051,0.341727,0.273484,-0.712123331236.38,1.953424,-1.553981,-2.514724,-2.089468,-2.330044,-0.046761,0.015599,0.999859,0.006278,0.483791,0.209721,-0.123694331236.39,2.590539,-1.544832,-1.866542,-1.332631,-0.42823,-0.312853,0.013593,0.999663,0.022118,0.158771,-0.086623,0.7313331236.4,2.93667,-1.542753,-1.536941,-0.331582,2.25998,-0.904859,0.005706,0.999607,0.027453,-0.38745,-0.18935,0.930463331236.41,-2.898617,-1.540484,-1.115729,-0.198168,2.627085,-1.314822,-0.007292,0.999541,0.029417,-0.364,0.131136,0.555864331236.42,-2.575877,-1.531966,-0.807703,-0.438784,1.051934,-1.273713,-0.020809,0.999246,0.032773,-0.178181,0.767218,0.328693331236.43,-2.459756,-1.522097,-0.693138,-0.461143,0.000741,-0.902353,-0.030679,0.998814,0.037796,-0.053107,1.293468,0.238602331236.44,-2.381096,-1.516226,-0.608872,-0.094207,-0.80068,-0.659685,-0.037596,0.998511,0.039517,-0.093569,1.042626,-0.32246331236.45,-2.370574,-1.511196,-0.582538,-0.336628,-1.798556,-0.387571,-0.041509,0.998224,0.04272,-0.093943,0.247412,-0.619121331236.46,-2.415189,-1.507544,-0.608607,-0.359489,-1.823014,-0.043881,-0.041983,0.998,0.047254,-0.046228,-0.382033,-0.290601331236.47,-2.477752,-1.507107,-0.657145,-0.18603,-1.285057,0.288074,-0.039216,0.997972,0.05013,0.057404,-0.622118,0.091746331236.48,-2.552434,-1.509343,-0.722595,-0.013225,-0.843713,0.516743,-0.034126,0.998112,0.05106,0.156989,-0.530904,0.357463331236.5,-2.687128,-1.519376,-0.848166,0.391964,-0.308317,0.54108,-0.022563,0.998678,0.046181,0.255305,-0.061361,0.425606331236.49,-2.625608,-1.513673,-0.790022,0.221281,-0.513439,0.57438,-0.028169,0.998369,0.049659,0.245591,-0.257433,0.458108331236.51,-2.743158,-1.525135,-0.901928,0.427128,-0.210881,0.449266,-0.017709,0.998958,0.04207,0.180215,0.092565,0.324599331236.52,-2.775322,-1.530534,-0.932385,0.466931,-0.171531,0.278654,-0.014416,0.99919,0.037582,0.045437,0.230211,0.292984331236.53,-2.761007,-1.535652,-0.915519,0.515943,-0.308338,0.078759,-0.013052,0.999382,0.032623,-0.104013,0.261543,0.322174331236.54,-2.688328,-1.540617,-0.837313,0.579865,-0.637829,-0.061696,-0.013214,0.999545,0.027128,-0.188431,0.192228,0.325243331236.56,-2.402958,-1.548135,-0.538748,0.42796,-0.530017,-0.112465,-0.015256,0.999743,0.016754,-0.109194,-0.042392,0.379547331236.55,-2.557302,-1.545129,-0.698908,0.578929,-0.733129,-0.125481,-0.014157,0.999671,0.021407,-0.170612,0.055093,0.342942331236.57,-2.346338,-1.549307,-0.477765,0.085754,-0.417296,0.026219,-0.015343,0.999769,0.015043,-0.050575,-0.085249,0.384523331236.58,-2.457484,-1.548925,-0.58548,-0.266238,-0.322576,0.180889,-0.013821,0.999761,0.016949,0.064175,-0.065389,0.451893331236.59,-2.655892,-1.54702,-0.781776,-0.444805,-0.167803,0.296314,-0.011099,0.999717,0.021025,0.229528,0.012764,0.510271331236.6,-2.866959,-1.543102,-0.993422,-0.61954,0.127597,0.392129,-0.00751,0.999617,0.026653,0.361056,0.017641,0.498005331236.62,3.049684,-1.525109,-1.370602,-1.197537,0.746772,0.756788,0.004192,0.998957,0.045479,0.316075,-0.140726,0.397057331236.61,-3.06854,-1.53615,-1.198794,-0.860854,0.454542,0.557738,-0.002528,0.9994,0.034547,0.378337,-0.053477,0.476562331236.63,2.932097,-1.508617,-1.49707,-1.653436,0.901989,0.990449,0.012923,0.998067,0.060781,0.286058,-0.223074,0.318781331236.64,2.851785,-1.486978,-1.587129,-2.039245,0.987802,1.240947,0.023924,0.996489,0.080229,0.262712,-0.304641,0.209688331236.65,2.799642,-1.460401,-1.651551,-2.469104,1.306225,1.494628,0.036943,0.993913,0.103793,0.261274,-0.346726,0.112913331236.66,2.770623,-1.42897,-1.694298,-2.864135,1.276221,1.636487,0.051243,0.98996,0.131736,0.23518,-0.389328,0.045266331236.67,2.754149,-1.393361,-1.721582,-3.311161,1.030967,1.779611,0.066688,0.9843,0.163423,0.157906,-0.252931,-0.282319331236.68,2.748995,-1.35073,-1.738665,-4.009256,1.167509,1.987725,0.083517,0.975883,0.201686,0.154489,-0.22039,-0.178722331236.69,2.74728,-1.304337,-1.748775,-4.378967,0.735543,1.978334,0.101159,0.964709,0.24311,0.107489,-0.081485,-0.334602331236.7,2.754141,-1.254514,-1.75039,-4.671743,0.822329,1.91252,0.117519,0.950398,0.28798,0.118504,0.145412,-0.490922331236.71,2.76373,-1.208258,-1.738658,-4.409417,-0.451848,1.192597,0.130842,0.935,0.32963,0.0208,0.294233,-0.733255331236.72,2.777493,-1.165316,-1.718688,-4.27891,-0.332206,0.770545,0.140471,0.918913,0.368601,-0.158842,0.492678,-0.939204331236.73,2.797964,-1.126183,-1.69898,-3.841657,0.367012,0.573641,0.144906,0.902777,0.404964,-0.139977,0.307504,-0.23315331236.74,2.80947,-1.094067,-1.687921,-3.005079,0.069592,0.622414,0.149617,0.888501,0.433799,-0.124516,0.045444,-0.09162331236.75,2.812682,-1.068967,-1.683606,-2.296714,-0.064645,0.618323,0.155378,0.876704,0.455244,-0.170607,-0.040049,-0.201353331236.76,2.814581,-1.049252,-1.681415,-1.812126,-0.000572,0.508108,0.160036,0.867051,0.471817,-0.142107,0.061126,-0.139359331236.77,2.815991,-1.033632,-1.679717,-1.412086,-0.000247,0.397348,0.163683,0.859163,0.484816,-0.05739,0.013456,-0.219252331236.78,2.81687,-1.023092,-1.679082,-0.877325,0.04764,0.279077,0.166136,0.853722,0.493515,0.016023,-0.142754,-0.174545331236.79,2.816924,-1.01888,-1.680071,-0.214302,0.116416,0.147981,0.167255,0.851522,0.496927,0.054242,-0.255498,-0.127253331236.8,2.818374,-1.021677,-1.681806,0.462723,0.369158,-0.059359,0.165778,0.852985,0.494909,0.143472,-0.29494,-0.070684331236.81,2.824764,-1.031183,-1.682769,1.075885,0.863791,-0.323512,0.160078,0.857907,0.488232,0.457583,-0.313168,0.141285331236.82,2.837616,-1.046469,-1.681393,1.555401,1.255235,-0.607738,0.149847,0.865661,0.477679,0.456918,-0.349242,0.10684331236.83,2.854861,-1.066357,-1.676852,1.955732,1.347441,-0.861852,0.136691,0.875446,0.463584,0.387922,-0.32796,0.08764331236.84,2.873789,-1.090807,-1.669409,2.381489,1.198943,-1.057358,0.122191,0.887,0.445309,0.238069,-0.369666,0.126209331236.85,2.891023,-1.119258,-1.660932,2.767218,0.887221,-1.110707,0.108196,0.899777,0.422724,0.076604,-0.471493,0.182531331236.86,2.903695,-1.150883,-1.6536,3.101771,0.517681,-1.053282,0.096074,0.913124,0.396199,-0.016866,-0.588921,0.272762331236.87,2.909898,-1.185223,-1.649633,3.403836,0.172161,-0.920403,0.086361,0.926583,0.366041,-0.084087,-0.709816,0.318117331236.88,2.907457,-1.22141,-1.651906,3.615916,-0.079783,-0.698902,0.07942,0.939583,0.332982,-0.132932,-0.752937,0.328334331236.89,2.894677,-1.257816,-1.665007,3.674662,0.001003,-0.370835,0.075254,0.95142,0.298557,-0.130155,-0.643223,0.364956331236.9,2.868948,-1.293313,-1.694317,3.67838,0.324317,0.00727,0.073765,0.961748,0.263817,-0.074894,-0.456804,0.436958331236.91,2.826067,-1.326454,-1.745032,3.532904,0.717353,0.383861,0.075071,0.970297,0.229976,0.002123,-0.163336,0.43752331236.92,2.763685,-1.356256,-1.818775,3.365659,1.009356,0.62283,0.078555,0.977074,0.197876,0.070264,0.154319,0.38594331236.93,2.677394,-1.38387,-1.916322,3.34062,0.880431,0.62834,0.083202,0.98258,0.166174,0.237569,0.49322,0.242853331236.94,2.57314,-1.410537,-2.028491,3.272565,0.526529,0.275393,0.085903,0.987186,0.134479,0.487888,0.64201,0.043179331236.95,2.454618,-1.435988,-2.149765,3.076293,0.007311,-0.140102,0.085237,0.990927,0.103914,0.419798,0.5832,-0.112642331236.96,2.305401,-1.458196,-2.295895,2.792145,-0.564078,-0.239084,0.083384,0.993667,0.075316,0.251226,0.428116,-0.144469331236.97,2.121951,-1.476008,-2.470853,2.448786,-1.065198,-0.382573,0.080631,0.995511,0.049563,0.235745,0.366778,-0.117541331236.98,1.90821,-1.49088,-2.672415,2.181816,-1.370098,-0.661593,0.075329,0.996808,0.026428,0.267108,0.266436,-0.024047331236.99,1.645698,-1.503538,-2.920936,2.022083,-1.494968,-0.922072,0.067019,0.997739,0.005029,0.271269,0.074832,0.100623331237,1.309994,-1.512171,3.040381,1.92199,-1.434854,-1.074747,0.05661,0.998282,-0.015108,0.285995,-0.12078,0.194384331237.01,0.927302,-1.514174,2.669447,1.810129,-1.160776,-1.121398,0.045274,0.998397,-0.033955,0.326141,-0.276382,0.295307331237.02,0.587667,-1.509313,2.337788,1.661801,-0.752755,-1.08015,0.034066,0.99811,-0.051137,0.356467,-0.392642,0.323079331237.03,0.349748,-1.500371,2.102101,1.44643,-0.111564,-0.95584,0.024112,0.997521,-0.066107,0.359662,-0.529946,0.348364331237.04,0.203023,-1.490652,1.952099,1.177939,0.395713,-0.78354,0.016142,0.99679,-0.078414,0.294176,-0.575464,0.223998331237.05,0.119746,-1.482809,1.862812,0.798137,0.617835,-0.560095,0.010497,0.996132,-0.087245,0.288941,-0.455665,0.108043331237.06,0.080113,-1.478921,1.81648,0.302269,0.654852,-0.317883,0.007342,0.995782,-0.091452,0.308576,-0.217386,0.076865331237.07,0.071565,-1.480296,1.802145,-0.277294,0.542738,-0.087696,0.006462,0.995908,-0.090146,0.256691,0.053226,0.136487331237.08,0.085234,-1.487279,1.811617,-0.845691,0.395947,0.058343,0.007102,0.996514,-0.083118,0.168908,0.342826,0.21799331237.09,0.11937,-1.498886,1.842033,-1.288187,0.393393,0.134571,0.008556,0.997416,-0.071337,0.056614,0.61524,0.223971331237.1,0.180115,-1.512929,1.898482,-1.493014,0.452684,0.145418,0.010361,0.998326,-0.056899,-0.004074,0.828776,0.136092331237.11,0.241616,-1.528416,1.957223,-1.626508,0.191224,-0.118689,0.010137,0.999102,-0.041137,-0.032995,0.79022,0.013382331237.12,0.274226,-1.547245,1.991211,-1.969288,-0.228957,-0.450342,0.006377,0.999723,-0.02267,-0.184325,0.377826,0.058116331237.13,1.494538,-1.570199,-3.07038,-2.355872,0.00359,-0.611378,0.000596,1,-0.000046,-0.304612,-0.038666,0.30043331237.14,-2.843825,-1.549584,-1.136418,-1.848297,1.529784,-0.688448,-0.006223,0.999775,0.020277,-0.390536,-0.428822,0.430147331237.16,-2.60506,-1.527981,-0.934599,-0.631228,1.076878,-0.778963,-0.021879,0.999084,0.036788,0.048261,-0.218917,-0.1649331237.15,-2.719332,-1.537127,-1.034238,-0.853719,2.311688,-0.713103,-0.013796,0.999433,0.030706,-0.286314,-0.60655,0.028284331237.17,-2.562792,-1.518283,-0.888248,-0.71995,-0.868265,-0.66387,-0.028713,0.998621,0.04394,0.056636,0.383474,0.10787331237.19,-2.509887,-1.511977,-0.811712,0.22241,-1.317332,-0.26029,-0.034714,0.998271,0.047441,-0.200942,0.972936,-0.138109331237.18,-2.550465,-1.512238,-0.864044,-0.274623,-1.130035,-0.374103,-0.032616,0.998286,0.048594,-0.096275,0.902089,0.481267331237.2,-2.505166,-1.509928,-0.787275,-0.205686,-2.16791,-0.220875,-0.036153,0.998148,0.048922,-0.180476,0.461935,-0.197146331237.21,-2.543928,-1.506371,-0.805299,-0.368282,-1.996966,-0.077615,-0.036228,0.997925,0.05322,-0.053067,-0.114228,0.156207331237.22,-2.589229,-1.504157,-0.833526,-0.256143,-1.666839,0.072917,-0.03494,0.99778,0.056687,0.098386,-0.396157,0.328597331237.23,-2.635587,-1.50396,-0.864881,-0.069529,-1.457566,0.199906,-0.03237,0.997767,0.058417,0.229178,-0.446025,0.488717331237.24,-2.668374,-1.506593,-0.886855,0.249813,-0.961116,0.267389,-0.029241,0.99794,0.057109,0.237127,-0.342041,0.468724331237.25,-2.692578,-1.511506,-0.904461,0.418201,-0.584722,0.33819,-0.025722,0.998243,0.053382,0.141063,-0.230985,0.337761331237.26,-2.730511,-1.5168,-0.938828,0.390835,-0.305828,0.418256,-0.021567,0.998543,0.049474,0.099737,-0.138756,0.348185331237.27,-2.784996,-1.521783,-0.990864,0.365246,-0.255514,0.438168,-0.017103,0.998799,0.045912,0.086241,-0.02271,0.383165331237.28,-2.840231,-1.527158,-1.043064,0.465652,-0.334997,0.391236,-0.012949,0.999048,0.041659,0.064356,0.081702,0.465727331237.29,-2.881185,-1.533759,-1.080181,0.644324,-0.397879,0.305429,-0.009534,0.999314,0.035781,-0.009753,0.155563,0.518571331237.3,-2.894075,-1.541415,-1.090044,0.756575,-0.262353,0.200291,-0.007197,0.999568,0.028482,-0.088674,0.177006,0.489249331237.31,-2.892048,-1.547908,-1.086462,0.564252,-0.128884,0.141619,-0.005652,0.999738,0.022177,-0.076639,0.153491,0.375452331237.32,-2.928033,-1.550834,-1.122264,0.171922,0.029011,0.148395,-0.00423,0.999801,0.019507,0.011433,0.138322,0.354287331237.33,-3.017238,-1.550351,-1.213987,-0.157172,0.329828,0.188391,-0.002536,0.999791,0.020286,0.080203,0.06692,0.371361331237.34,-3.138804,-1.546528,-1.340277,-0.488187,0.508386,0.287467,-0.000068,0.999706,0.024266,0.127616,-0.011394,0.371013331237.35,3.026084,-1.53899,-1.464743,-0.818571,0.659509,0.433612,0.003665,0.999494,0.031589,0.15083,-0.088285,0.31062331237.36,2.930049,-1.526725,-1.568418,-1.29153,0.78695,0.651191,0.009251,0.999029,0.043075,0.165279,-0.189962,0.237442331237.37,2.865504,-1.507714,-1.640488,-1.917019,0.713489,0.903284,0.017185,0.998011,0.060653,0.19238,-0.257975,0.175949331237.38,2.820399,-1.482596,-1.691443,-2.433144,0.542898,1.189726,0.027809,0.996113,0.083581,0.220635,-0.345585,0.023032331237.39,2.788793,-1.451494,-1.729279,-2.963244,0.656011,1.478389,0.041124,0.992892,0.111689,0.203382,-0.434893,-0.030741331237.4,2.771598,-1.415676,-1.753176,-3.339063,0.601356,1.608745,0.055869,0.987993,0.144044,0.123102,-0.351091,-0.193238331237.41,2.759917,-1.375777,-1.77033,-3.752877,0.542004,1.824203,0.072181,0.981044,0.179841,0.098672,-0.2933,-0.196519331237.43,2.71658,-1.293594,-1.822611,-4.207722,0.322742,2.028058,0.112841,0.961825,0.249319,0.124875,-0.003649,-0.455404331237.42,2.751495,-1.331155,-1.784576,-4.123691,0.518638,2.015369,0.090261,0.971423,0.219522,0.115061,-0.182437,-0.261621331237.44,2.718041,-1.248086,-1.824332,-4.288494,0.320676,1.830896,0.130344,0.94838,0.289114,0.125973,0.095947,-0.430471331237.45,2.728037,-1.205018,-1.812009,-4.077088,-0.292501,1.236657,0.143738,0.933846,0.327523,-0.093751,0.265159,-0.700906331237.46,2.739929,-1.167577,-1.795041,-3.576962,-0.395678,0.817436,0.153402,0.919803,0.361153,-0.088369,0.222318,-0.322258331237.47,2.752462,-1.136127,-1.779838,-3.027545,-0.056364,0.584162,0.159763,0.907009,0.389628,-0.054523,0.140155,0.013891331237.48,2.76447,-1.111254,-1.765282,-2.415054,-0.169876,0.268457,0.163332,0.896256,0.41237,-0.071123,0.096588,-0.157868331237.49,2.774763,-1.091947,-1.751053,-1.939849,-0.238594,0.063532,0.165255,0.887526,0.430103,-0.066118,0.054949,-0.1814331237.5,2.783917,-1.076401,-1.73914,-1.581501,-0.09478,0.029919,0.166121,0.880256,0.44447,-0.035201,-0.091468,-0.120618331237.51,2.792669,-1.06431,-1.729806,-1.200399,0.104294,-0.023949,0.165852,0.874454,0.455876,-0.020802,-0.263477,-0.058354331237.52,2.80192,-1.056814,-1.722055,-0.711083,0.303792,-0.132398,0.163807,0.870793,0.463558,-0.007725,-0.301824,-0.02525331237.53,2.811733,-1.055042,-1.716273,-0.104217,0.544562,-0.238878,0.15975,0.869921,0.466602,0.12652,-0.342379,0.019924331237.54,2.822198,-1.059661,-1.712344,0.535845,0.764828,-0.369565,0.153594,0.87219,0.464428,0.31926,-0.340421,0.045292331237.55,2.835883,-1.070484,-1.708062,1.116111,1.084896,-0.597173,0.144375,0.877433,0.457458,0.512562,-0.253363,0.128297331237.56,2.854266,-1.086965,-1.701387,1.619406,1.30688,-0.856121,0.131825,0.885219,0.446104,0.500316,-0.13258,0.145662331237.57,2.87703,-1.108762,-1.691005,2.105064,1.364682,-1.11686,0.116563,0.895147,0.43026,0.414153,-0.036764,0.171607331237.58,2.901834,-1.135092,-1.677323,2.524105,1.204705,-1.275018,0.100223,0.906573,0.409977,0.327541,-0.135104,0.177502331237.59,2.924904,-1.165379,-1.661606,2.931716,0.744715,-1.325592,0.084795,0.918938,0.38518,0.188078,-0.298058,0.195311331237.61,2.948471,-1.236262,-1.636205,3.67063,-0.373998,-1.009315,0.063014,0.944563,0.322226,-0.04211,-0.700835,0.289728331237.6,2.941613,-1.199289,-1.646426,3.324941,0.106436,-1.244419,0.072114,0.931781,0.355785,0.035644,-0.517444,0.233494331237.62,2.942284,-1.275375,-1.636933,3.93308,-0.598599,-0.655056,0.057644,0.956679,0.28538,-0.081722,-0.746642,0.316442331237.63,2.920253,-1.315114,-1.653283,4.023357,-0.638337,-0.316739,0.055522,0.967491,0.246735,-0.110637,-0.697685,0.311263331237.64,2.881237,-1.354257,-1.687462,4.032945,-0.539032,-0.119423,0.055308,0.976647,0.20761,-0.120905,-0.524621,0.318284331237.65,2.820789,-1.392771,-1.745743,4.048825,-0.261951,0.031497,0.055841,0.984195,0.168052,-0.061929,-0.260456,0.370644331237.66,2.722864,-1.42935,-1.843851,3.982574,-0.047798,0.143452,0.05732,0.990013,0.128796,0.034126,0.059608,0.367252331237.67,2.586215,-1.463257,-1.984598,3.778062,0.441634,-0.124615,0.056592,0.994223,0.0912,0.183413,0.401559,0.40706331237.68,2.393538,-1.493534,-2.185696,3.469887,0.8352,-0.422126,0.052503,0.997017,0.056578,0.277545,0.586418,0.364534331237.69,2.053772,-1.517271,-2.533314,3.165475,0.640484,-0.490393,0.047381,0.998568,0.024846,0.233488,0.574674,0.186228331237.7,1.48334,-1.528244,-3.106752,2.800803,0.090041,-0.515399,0.042377,0.999095,-0.003716,0.198513,0.476598,0.026711331237.71,0.893518,-1.524591,2.590562,2.441908,-0.642618,-0.688219,0.035994,0.998933,-0.028946,0.27411,0.440047,-0.046585331237.72,0.494283,-1.513019,2.202276,2.079991,-1.303764,-0.851673,0.027394,0.998331,-0.050834,0.314876,0.27889,-0.05288331237.73,0.252506,-1.499761,1.975342,1.674678,-1.598253,-0.890621,0.017732,0.997478,-0.068725,0.267134,-0.039196,0.03395331237.74,0.09067,-1.487299,1.829395,1.354441,-1.631584,-0.907194,0.007552,0.996516,-0.083058,0.236406,-0.322215,0.121281331237.75,-0.027349,-1.476023,1.72453,1.100569,-1.257608,-0.900932,-0.002588,0.995512,-0.094596,0.261651,-0.488066,0.266013331237.76,-0.11397,-1.467192,1.647082,0.727491,-0.88696,-0.797466,-0.011761,0.994638,-0.102748,0.261898,-0.573648,0.342707331237.77,-0.174754,-1.462965,1.594208,0.202835,-0.833849,-0.552351,-0.018712,0.994192,-0.105983,0.236043,-0.545705,0.347286331237.78,-0.21648,-1.464624,1.559971,-0.382882,-0.719418,-0.24816,-0.022762,0.994369,-0.1035,0.23875,-0.432693,0.418761331237.79,-0.237336,-1.472135,1.541253,-0.896078,-0.008022,0.056992,-0.023159,0.995137,-0.09574,0.278973,-0.253468,0.580283331237.8,-0.223386,-1.481522,1.548783,-0.839886,0.828686,0.363528,-0.019751,0.996018,-0.08694,0.300055,0.077392,0.370082331237.81,-0.170959,-1.488027,1.592062,-0.517271,0.9055,0.514527,-0.014065,0.996577,-0.08147,0.386441,0.487676,-0.298901331237.82,-0.117097,-1.496303,1.641344,-0.912202,0.273105,0.501251,-0.008695,0.997227,-0.073915,0.386518,0.746456,-0.572783331237.83,-0.085094,-1.511612,1.680254,-1.720666,-1.033872,0.370025,-0.005027,0.998249,-0.058936,0.257743,0.708462,-0.194772331237.84,-0.115405,-1.532433,1.664319,-2.140149,-1.413328,0.036512,-0.004416,0.999264,-0.038099,0.007972,0.58147,0.579496331237.85,-0.345722,-1.547798,1.434043,-1.405759,0.597972,-0.467148,-0.007793,0.999736,-0.021635,-0.307622,0.393239,1.238539331237.86,-0.727321,-1.548699,1.034353,-0.290405,2.021743,-0.793797,-0.014691,0.999756,-0.016504,-0.474796,0.097015,0.67692331237.87,-0.92436,-1.541507,0.820895,0.165246,1.40653,-0.919293,-0.023377,0.999571,-0.01764,-0.368027,-0.274138,-0.401122331237.88,-0.983837,-1.533106,0.756475,0.357397,0.19771,-0.763404,-0.031375,0.99929,-0.020869,-0.234311,-0.485389,-0.711278331237.89,-0.976604,-1.525352,0.768949,0.523652,-0.736845,-0.585081,-0.037642,0.998968,-0.025433,-0.144167,-0.44338,-0.538532331237.91,-0.915867,-1.508115,0.856778,0.67645,-1.584938,-0.570503,-0.04968,0.998036,-0.038155,-0.165912,0.314006,0.08268331237.9,-0.939981,-1.516892,0.817476,0.73815,-1.315251,-0.559036,-0.043509,0.998548,-0.031777,-0.124277,-0.117917,-0.270591331237.92,-0.930869,-1.501382,0.860303,0.337253,-1.983453,-0.502852,-0.055635,0.997592,-0.041416,-0.206816,0.79646,0.351261331237.93,-0.972243,-1.497673,0.841745,0.031511,-2.387874,-0.340929,-0.060357,0.997328,-0.041165,-0.157263,1.099337,0.276577331237.94,-1.049501,-1.497353,0.78818,-0.447721,-2.386736,-0.202035,-0.063631,0.997304,-0.036542,0.039354,0.781855,0.190931331237.95,-1.161315,-1.499765,0.698113,-0.736247,-2.123622,-0.033442,-0.065104,0.997478,-0.028256,0.25822,0.17902,0.217786331237.96,-1.260774,-1.502851,0.615094,-0.605054,-1.518385,0.123897,-0.064656,0.997693,-0.020713,0.372716,-0.192456,0.328635331237.97,-1.321915,-1.5059,0.56385,-0.347193,-0.828547,0.224427,-0.062852,0.997895,-0.015974,0.359697,-0.35344,0.559599331237.98,-1.329018,-1.509146,0.55901,-0.027193,-0.033193,0.344399,-0.059819,0.9981,-0.014752,0.334905,-0.378609,0.718899331237.99,-1.28764,-1.513193,0.596579,0.136921,0.495091,0.488377,-0.055279,0.998341,-0.016085,0.367031,-0.33138,0.651751331238,-1.224989,-1.518095,0.652996,0.145301,0.662054,0.590449,-0.049559,0.998612,-0.017855,0.348799,-0.182175,0.584078331238.01,-1.15006,-1.523853,0.721839,0.073858,0.592516,0.693608,-0.042834,0.998898,-0.019166,0.235674,-0.015515,0.446229331238.03,-1.193601,-1.541495,0.671494,-0.85383,0.2002,0.807358,-0.027237,0.999571,-0.01079,-0.115493,0.273439,0.127474331238.02,-1.105954,-1.531378,0.761588,-0.277597,0.385009,0.77659,-0.035226,0.999223,-0.017666,0.065805,0.145873,0.25317331238.04,-1.714469,-1.551628,0.149969,-1.541194,0.005105,0.848932,-0.01897,0.999816,0.002744,-0.180539,0.275773,0.131777331238.05,-2.729724,-1.546499,-0.864625,-2.086844,-0.111017,0.964112,-0.009726,0.999705,0.022263,-0.054804,0.147649,0.251876331238.06,3.11561,-1.525673,-1.300534,-2.358722,-0.262716,1.140513,0.001172,0.998982,0.045092,0.096088,-0.055943,0.246732331238.07,2.940859,-1.498974,-1.47352,-2.627952,-0.132503,1.381217,0.014308,0.997422,0.07032,0.189702,-0.251588,0.19497331238.08,2.847461,-1.467183,-1.570498,-2.984613,0.494289,1.698668,0.029985,0.994637,0.098986,0.236495,-0.422524,0.265104331238.09,2.791504,-1.43147,-1.634964,-3.190028,0.837515,1.92647,0.047632,0.99031,0.130452,0.239401,-0.509536,0.154918331238.1,2.755446,-1.393389,-1.678632,-3.416832,0.690832,2.072285,0.066465,0.984305,0.163483,0.222841,-0.30654,-0.154847331238.11,2.734029,-1.350567,-1.707578,-3.864172,0.710177,2.238096,0.086589,0.975847,0.20056,0.263066,-0.227068,-0.09091331238.12,2.723315,-1.304925,-1.726328,-4.069056,0.757751,2.251113,0.106726,0.964864,0.240098,0.248438,-0.111776,-0.184632331238.13,2.720606,-1.260103,-1.733087,-4.040747,0.22991,1.921955,0.124935,0.952122,0.279025,0.124622,0.070705,-0.409228331238.14,2.725862,-1.218114,-1.726294,-3.90564,-0.209197,1.333999,0.139499,0.93845,0.315994,-0.029254,0.263912,-0.555572331238.15,2.739288,-1.181972,-1.709263,-3.458634,-0.232076,0.770993,0.148433,0.925355,0.348834,-0.261409,0.29991,-0.435138331238.16,2.750949,-1.153792,-1.695123,-2.604604,-0.120841,0.522915,0.154226,0.914307,0.37451,-0.177297,0.230866,-0.090743331238.17,2.757354,-1.134164,-1.685949,-1.793626,-0.237147,0.361638,0.158522,0.906181,0.392054,-0.124617,0.10804,-0.098674331238.18,2.759297,-1.120346,-1.680341,-1.262725,-0.308474,0.276795,0.162416,0.900251,0.403942,-0.028093,0.035143,-0.214474331238.19,2.760697,-1.110153,-1.676732,-0.959757,-0.148574,0.233041,0.165253,0.895767,0.412666,0.021179,-0.022857,-0.136025331238.2,2.760336,-1.101543,-1.675013,-0.783829,-0.201168,0.249666,0.168266,0.891906,0.41975,0.05993,-0.204864,-0.16209331238.21,2.759327,-1.095855,-1.674798,-0.441393,-0.084136,0.189302,0.170579,0.889319,0.42428,0.013976,-0.270011,-0.15481331238.22,2.758169,-1.094627,-1.676716,0.049881,0.104813,0.100122,0.171478,0.888757,0.425095,-0.000976,-0.402749,-0.085496331238.23,2.758319,-1.099492,-1.679753,0.667159,0.354488,-0.113069,0.169795,0.890977,0.421105,0.080037,-0.476899,-0.02752331238.24,2.761163,-1.111256,-1.682817,1.312674,0.629339,-0.380546,0.164694,0.896257,0.411825,0.214594,-0.430101,0.039789331238.25,2.767018,-1.129578,-1.685308,1.902582,0.884108,-0.644175,0.156244,0.904232,0.397432,0.221624,-0.340008,0.059157331238.26,2.775614,-1.153815,-1.687203,2.43962,1.072129,-0.862151,0.144936,0.914315,0.378181,0.159248,-0.353235,0.115685331238.27,2.783395,-1.183592,-1.68957,2.981452,0.95884,-1.002295,0.132382,0.925968,0.353635,0.096683,-0.443104,0.089068331238.28,2.783869,-1.218841,-1.696586,3.568379,0.609595,-0.997185,0.120706,0.9387,0.322911,0.053366,-0.578044,0.038036331238.29,2.769766,-1.259035,-1.713863,4.120751,0.089509,-0.872271,0.111443,0.951795,0.285775,0.01046,-0.630033,0.016212331238.3,2.731939,-1.301889,-1.749102,4.445553,-0.575379,-0.64213,0.105817,0.964062,0.243695,-0.023527,-0.610241,-0.006299331238.31,2.663035,-1.343934,-1.809926,4.462207,-1.127401,-0.406476,0.103576,0.974377,0.199654,-0.043838,-0.511425,0.032997331238.32,2.556848,-1.382633,-1.903109,4.290881,-1.635872,-0.282572,0.103252,0.982349,0.155977,-0.04034,-0.34264,0.130919331238.33,2.405495,-1.416023,-2.037693,3.992597,-1.951378,-0.223358,0.1035,0.988047,0.114244,0.019791,-0.100504,0.167418331238.34,2.208522,-1.442655,-2.216709,3.56718,-1.96559,-0.299633,0.102673,0.991801,0.076083,0.1039,0.222707,0.234998331238.35,1.977217,-1.46175,-2.43293,3.062316,-1.548929,-0.401397,0.099965,0.99406,0.043023,0.126979,0.473133,0.317206331238.36,1.723832,-1.473832,-2.676212,2.662326,-1.024763,-0.487622,0.095681,0.995303,0.014758,0.085166,0.591688,0.380414331238.37,1.455416,-1.479654,-2.937977,2.440706,-0.731289,-0.551306,0.090411,0.995849,-0.010478,0.065839,0.536347,0.377422331238.38,1.179391,-1.479739,3.075542,2.378259,-0.796815,-0.656291,0.084054,0.995857,-0.034689,0.112067,0.447762,0.30039331238.39,0.91501,-1.474491,2.820638,2.315868,-1.173779,-0.771011,0.076211,0.995366,-0.058635,0.256629,0.362773,0.196055331238.4,0.689161,-1.465719,2.60909,2.08119,-1.670752,-0.884735,0.066694,0.994484,-0.080947,0.397325,0.274299,0.114867331238.41,0.512863,-1.456367,2.449704,1.660354,-1.819091,-0.921058,0.056025,0.99346,-0.099489,0.519521,0.188013,0.084475331238.42,0.381228,-1.447838,2.334081,1.285855,-1.620332,-0.851252,0.045633,0.99245,-0.113844,0.624472,0.029385,0.14459331238.43,0.282134,-1.43971,2.247136,1.10312,-1.184193,-0.762341,0.036391,0.99142,-0.125544,0.668519,-0.145794,0.225122331238.44,0.208886,-1.431619,2.18178,0.962722,-0.748931,-0.62394,0.028768,0.99033,-0.135713,0.64033,-0.277638,0.270616331238.45,0.163038,-1.425174,2.140309,0.66555,-0.409765,-0.4044,0.023553,0.989416,-0.143184,0.567893,-0.436834,0.321635331238.46,0.144755,-1.421717,2.124212,0.286213,-0.187127,-0.097669,0.021425,0.988908,-0.146974,0.509733,-0.525102,0.324724331238.47,0.155959,-1.420792,2.135429,0.014402,0.092144,0.27603,0.023213,0.98877,-0.147629,0.480205,-0.479813,0.300507331238.48,0.195909,-1.419346,2.170453,0.100466,0.721139,0.632572,0.029368,0.988553,-0.147986,0.436345,-0.310087,0.338064331238.49,0.254358,-1.41438,2.216739,0.385224,1.427682,0.85928,0.039198,0.987792,-0.150767,0.345308,-0.078658,0.314356331238.5,0.321622,-1.409365,2.270769,0.137285,1.333281,1.000481,0.050808,0.986998,-0.15249,0.060398,0.18509,-0.143973331238.51,0.392341,-1.408949,2.33374,-0.469793,0.65739,0.927828,0.061613,0.986931,-0.148897,-0.327161,0.482292,-0.614088331238.52,0.440847,-1.413223,2.384775,-0.767865,-0.475278,0.41934,0.066959,0.987611,-0.141918,-0.444843,0.747145,-0.523426331238.53,0.442699,-1.419294,2.393429,-0.514007,-0.572385,-0.335185,0.064653,0.988545,-0.136374,-0.39171,0.984569,0.099082331238.54,0.396666,-1.423778,2.343871,0.025445,0.58531,-1.009869,0.056595,0.989212,-0.135115,-0.371171,1.025604,0.944578331238.55,0.323502,-1.425658,2.261894,0.275145,0.751839,-1.212134,0.045976,0.989486,-0.137127,-0.328645,0.612306,0.72514331238.56,0.253299,-1.427533,2.190281,0.030867,-0.213115,-0.962559,0.035779,0.989755,-0.138218,-0.135404,0.014563,-0.050426331238.57,0.206498,-1.431014,2.152074,-0.281883,-1.063455,-0.4897,0.028567,0.990246,-0.136367,-0.012606,-0.387036,-0.311127331238.58,0.183944,-1.433346,2.139287,-0.116168,-0.899735,-0.152409,0.025062,0.990569,-0.134706,0.002236,-0.428847,-0.020064331238.59,0.172981,-1.430877,2.132147,0.397722,-0.216892,-0.032541,0.024004,0.990227,-0.137382,-0.04471,-0.190377,0.203971331238.6,0.167081,-1.422825,2.124495,0.95817,0.2651,0.047767,0.024519,0.989072,-0.145379,-0.001981,0.008181,0.145302331238.61,0.162682,-1.409718,2.116593,1.433001,0.337733,0.109348,0.025976,0.987055,-0.158265,0.077173,0.112463,-0.153472331238.63,0.146066,-1.376442,2.101459,1.689556,-0.474469,0.11191,0.02811,0.981173,-0.191076,0.040692,0.231779,-0.038447331238.62,0.156707,-1.393366,2.109001,1.700852,0.066307,0.138133,0.027546,0.984301,-0.174338,0.057964,0.145475,-0.150522331238.64,0.131889,-1.360641,2.095601,1.565216,-0.94443,0.104774,0.027434,0.977998,-0.2068,0.061265,0.379698,0.23158331238.65,0.118813,-1.345645,2.092451,1.498708,-0.998511,0.123577,0.026463,0.97476,-0.22168,0.023738,0.47925,0.540955331238.66,0.107054,-1.330903,2.089145,1.484776,-0.808963,0.074833,0.025387,0.971363,-0.236239,-0.075131,0.367595,0.620363331238.67,0.09566,-1.316479,2.084654,1.443889,-0.6897,0.02927,0.02403,0.967835,-0.250435,-0.146909,0.082275,0.455681331238.68,0.086238,-1.302966,2.082299,1.33443,-0.739166,0.085055,0.022794,0.964347,-0.263656,-0.156262,-0.186058,0.365081331238.69,0.082311,-1.290186,2.085242,1.266523,-0.635734,0.225092,0.02277,0.960887,-0.276004,-0.143268,-0.358943,0.463337331238.7,0.086186,-1.277019,2.093137,1.328626,-0.274566,0.37189,0.024926,0.957157,-0.288495,-0.129647,-0.409504,0.570325331238.71,0.097267,-1.262468,2.104814,1.467576,0.071423,0.512998,0.029471,0.952842,-0.302032,-0.142645,-0.333351,0.554061331238.72,0.110789,-1.246077,2.116541,1.652815,0.287534,0.538518,0.035274,0.94774,-0.317087,-0.168361,-0.111391,0.476892331238.73,0.123275,-1.228367,2.126031,1.75041,0.361737,0.511383,0.041288,0.941942,-0.333228,-0.180524,0.137297,0.410514331238.74,0.13322,-1.210769,2.133064,1.715475,0.329498,0.455653,0.046795,0.935887,-0.349178,-0.151516,0.290477,0.420757331238.75,0.141274,-1.19406,2.137669,1.621344,0.404949,0.371319,0.0518,0.92987,-0.364222,-0.088116,0.279557,0.479457331238.76,0.148705,-1.178364,2.140329,1.530256,0.519032,0.327469,0.056661,0.923982,-0.378216,-0.034032,0.06903,0.44566331238.77,0.157603,-1.164087,2.144734,1.333049,0.486041,0.420878,0.062088,0.918428,-0.390686,-0.003434,-0.160508,0.348526331238.78,0.171132,-1.152677,2.15395,0.981753,0.525462,0.600279,0.069148,0.913854,-0.400111,0.011723,-0.200002,0.391413331238.79,0.188668,-1.144307,2.167226,0.655426,0.55162,0.715873,0.077585,0.910424,-0.406337,-0.008387,-0.098168,0.470195331238.8,0.209408,-1.139112,2.183284,0.278508,0.651163,0.777416,0.086978,0.908262,-0.409261,-0.03847,0.024126,0.598531331238.81,0.233622,-1.138153,2.202074,-0.208115,0.739038,0.799598,0.097063,0.907861,-0.407882,-0.056779,0.093726,0.671661331238.82,0.261003,-1.142151,2.224863,-0.771452,0.621499,0.850562,0.107256,0.909529,-0.401563,-0.079301,0.080949,0.64314331238.83,0.291846,-1.151543,2.255644,-1.43084,0.14561,1.021361,0.117125,0.913393,-0.389865,-0.048185,0.02075,0.606158331238.84,0.328618,-1.166232,2.299555,-2.125936,-0.527783,1.310967,0.127035,0.919274,-0.372555,0.040629,-0.077965,0.665921331238.85,0.37409,-1.185711,2.359408,-2.812961,-1.111871,1.560865,0.137268,0.926766,-0.349659,0.080536,-0.175469,0.745945331238.86,0.43425,-1.208702,2.436179,-3.360495,-1.07419,1.715069,0.149037,0.935157,-0.321356,-0.038472,-0.285728,0.804785331238.87,0.512317,-1.23228,2.523785,-3.518341,-0.145964,1.551787,0.162789,0.943248,-0.289452,-0.1699,-0.245128,0.630898331238.88,0.609367,-1.256828,2.618807,-3.830106,0.959649,1.207244,0.176761,0.951116,-0.253248,-0.220524,-0.191823,0.24333331238.89,0.727544,-1.283028,2.729876,-4.181304,1.180348,0.871442,0.188746,0.95888,-0.211955,-0.134196,0.044691,-0.325857331238.9,0.847548,-1.30677,2.851056,-3.985939,0.017955,0.606525,0.195638,0.965347,-0.172716,0.198496,0.221909,-0.920302331238.91,0.962261,-1.327144,2.979043,-3.75729,-1.18213,0.297167,0.197941,0.970463,-0.137914,0.559078,0.336818,-0.87614331238.93,1.220985,-1.357303,-3.00635,-3.725238,-1.472243,0.301528,0.199043,0.977297,-0.072614,0.821038,0.79875,0.146695331238.92,1.080554,-1.344682,3.11695,-3.683509,-1.689561,0.18403,0.197787,0.974545,-0.105559,0.78674,0.56908,-0.366731331238.94,1.381476,-1.36442,-2.833934,-3.664086,-0.565247,0.252335,0.201253,0.97878,-0.038563,0.730387,0.88322,0.551213331238.95,1.557052,-1.367525,-2.656267,-3.659859,0.39492,-0.017472,0.201855,0.979411,-0.002775,0.557025,0.900456,0.568372331238.96,1.739141,-1.366993,-2.479491,-3.542613,1.03173,-0.276773,0.199534,0.979304,0.033911,0.363714,0.933019,0.381036331238.97,1.902563,-1.362423,-2.323226,-3.095878,0.936969,-0.395379,0.195588,0.978369,0.06738,0.196685,0.904276,-0.086423331238.98,2.018665,-1.360245,-2.197755,-2.380849,-1.210847,-0.958155,0.188386,0.977916,0.090506,-0.214631,1.265584,-0.992926331238.99,2.1306,-1.358604,-2.065342,-2.634903,-1.812291,-1.246843,0.178457,0.977572,0.111834,-0.264531,1.223387,-0.352893331239,2.252646,-1.353974,-1.915916,-2.963026,-2.706227,-1.618576,0.167027,0.976586,0.13558,-0.211781,1.411415,-0.593161331239.01,2.386243,-1.345839,-1.749235,-3.33573,-2.875869,-1.972603,0.152921,0.974804,0.162398,-0.099027,1.492451,-0.15927331239.02,2.525879,-1.332557,-1.582358,-3.499074,-2.113268,-2.19309,0.136295,0.971755,0.192655,0.044857,1.303102,0.104601331239.03,2.659055,-1.31524,-1.426228,-3.489814,-1.790606,-2.432094,0.117299,0.967523,0.223921,0.278361,0.978599,0.012773331239.04,2.775267,-1.294138,-1.283322,-3.505679,-2.415453,-2.604384,0.097836,0.961974,0.255019,0.479511,0.642061,-0.280898331239.05,2.861377,-1.269081,-1.161154,-3.489383,-3.315839,-2.486199,0.082183,0.954828,0.285568,0.364228,0.376562,-0.383667331239.06,2.918708,-1.242813,-1.06492,-3.226389,-3.448928,-2.163177,0.071206,0.946694,0.314166,0.174644,-0.075143,-0.109988331239.07,2.954305,-1.219365,-0.991972,-2.652812,-3.290706,-1.840463,0.064096,0.938881,0.338222,0.120444,-0.387489,0.112294331239.08,2.977169,-1.201423,-0.935748,-1.960348,-2.883805,-1.600749,0.059095,0.932554,0.356161,0.110705,-0.508314,0.269296331239.09,2.996294,-1.188994,-0.889247,-1.360255,-2.283332,-1.48415,0.053947,0.927995,0.368667,0.091958,-0.518769,0.292069331239.1,3.014823,-1.181375,-0.848116,-0.856552,-1.903713,-1.429653,0.048,0.925129,0.376606,0.045705,-0.519993,0.155147331239.11,3.0327,-1.177527,-0.809182,-0.47503,-1.832428,-1.455369,0.041647,0.923661,0.380941,0.05929,-0.446488,-0.072972331239.12,3.048973,-1.176282,-0.770135,-0.213873,-2.049957,-1.507955,0.035548,0.923184,0.382712,0.095464,-0.370785,-0.329734331239.13,3.064369,-1.177391,-0.729654,0.038878,-2.286829,-1.588317,0.029573,0.923609,0.382193,0.104918,-0.334452,-0.451407331239.14,3.077867,-1.180203,-0.688444,0.210021,-2.531617,-1.60637,0.024246,0.924683,0.379964,0.120148,-0.413728,-0.574254331239.15,3.089359,-1.184219,-0.647831,0.347991,-2.656452,-1.555672,0.019684,0.926205,0.376507,0.16394,-0.537731,-0.607357331239.16,3.098627,-1.189292,-0.609259,0.475284,-2.666814,-1.449891,0.015992,0.928105,0.371974,0.195815,-0.660237,-0.59814331239.17,3.106347,-1.195683,-0.573697,0.634995,-2.5022,-1.31446,0.012911,0.930466,0.36615,0.208265,-0.755448,-0.524033331239.18,3.113574,-1.203932,-0.541656,0.852656,-2.20432,-1.157571,0.010049,0.933457,0.358549,0.185142,-0.867035,-0.41638331239.19,3.122449,-1.214545,-0.511836,1.111755,-1.819604,-1.079598,0.006676,0.937211,0.3487,0.199027,-0.898835,-0.322653331239.2,3.134572,-1.227776,-0.482544,1.389987,-1.466958,-1.005631,0.002361,0.941743,0.336325,0.221897,-0.93126,-0.240988331239.21,-3.134304,-1.243349,-0.454429,1.625216,-1.15992,-0.911614,-0.002344,0.946866,0.321618,0.203608,-0.939222,-0.161981331239.22,-3.117868,-1.260836,-0.426914,1.831465,-0.927409,-0.818708,-0.007236,0.952346,0.304935,0.19823,-0.893157,-0.105899331239.23,-3.100172,-1.280578,-0.399754,2.079833,-0.811222,-0.714389,-0.01185,0.958181,0.285916,0.21055,-0.816763,-0.030758331239.24,-3.083249,-1.302656,-0.37385,2.317925,-0.808874,-0.572444,-0.015449,0.964265,0.264487,0.213386,-0.664476,0.039315331239.25,-3.066761,-1.326442,-0.348189,2.463329,-0.847064,-0.474962,-0.018087,0.970294,0.241253,0.145635,-0.462191,0.098057331239.26,-3.047822,-1.350115,-0.320508,2.400264,-0.78585,-0.434056,-0.020496,0.975749,0.217933,0.129962,-0.166285,0.211968331239.27,-3.024554,-1.370316,-0.289132,1.947904,-0.74522,-0.448802,-0.023254,0.979971,0.197777,0.263397,0.263986,0.366462331239.28,-3.004963,-1.381947,-0.259621,0.970745,-1.055644,-0.392323,-0.02557,0.982221,0.18598,0.395855,0.790423,0.543986331239.29,-3.011725,-1.382858,-0.248414,-0.167615,-2.128798,-0.110713,-0.024196,0.982391,0.185261,0.44282,1.142929,0.683727331239.3,-3.055876,-1.373794,-0.260837,-1.171818,-3.545508,0.200869,-0.016757,0.980658,0.195012,0.398501,1.025141,0.72813331239.31,-3.109159,-1.356642,-0.275199,-1.89578,-3.980887,0.169177,-0.006892,0.977157,0.212409,0.288782,0.558457,0.948281331239.32,3.135012,-1.336374,-0.280179,-2.049111,-3.177103,0.059699,0.001528,0.972649,0.232276,0.22128,-0.109703,1.007882331239.33,3.117433,-1.317822,-0.276486,-1.791117,-1.779801,-0.107781,0.006046,0.968172,0.250212,0.066555,-0.528246,0.848787331239.34,3.120217,-1.302671,-0.264174,-1.458951,-0.687055,-0.345232,0.005663,0.964269,0.264864,-0.103365,-0.702398,0.563414331239.35,3.13447,-1.28931,-0.245526,-1.346398,-0.323824,-0.53007,0.001978,0.960644,0.277777,-0.16984,-0.645916,0.255762331239.36,-3.129789,-1.273542,-0.222396,-1.722941,-0.334615,-0.720179,-0.003457,0.956144,0.292875,0.079202,-0.23889,0.066957331239.37,-3.113185,-1.252487,-0.205806,-2.192507,0.350036,-0.409227,-0.008889,0.949766,0.312835,0.596169,0.767656,0.231172331239.38,-3.109814,-1.234773,-0.21405,-1.599784,1.242887,0.421814,-0.010477,0.944073,0.329569,0.454675,2.403598,0.046179331239.39,-3.125748,-1.219278,-0.235626,-1.67932,0.075943,0.673439,-0.005456,0.938851,0.344281,0.26986,2.354713,-0.87254331239.41,-3.138738,-1.1913,-0.244871,-0.7584,-0.243422,-0.025477,-0.001057,0.928851,0.370451,0.375859,-0.667804,-1.308058331239.4,-3.137052,-1.201595,-0.244653,-1.73235,-0.232997,0.183815,-0.001639,0.932616,0.360867,0.449972,0.581254,-0.79678331239.42,3.133764,-1.188522,-0.246357,-0.205293,-1.177291,0.094289,0.00292,0.927819,0.37302,0.842371,-1.103341,-1.415882331239.43,3.114735,-1.186935,-0.248965,-0.148594,-1.798196,0.074241,0.010057,0.927226,0.374368,0.701079,-0.994029,-0.338266331239.44,3.102791,-1.185941,-0.244528,-0.058413,-1.423023,-0.258178,0.014563,0.926853,0.375143,0.274942,-0.772464,0.193308331239.45,3.121088,-1.195036,-0.229631,1.354551,1.231903,-0.701276,0.007524,0.930229,0.366903,-0.170671,-0.50756,0.396067331239.47,-3.039558,-1.252378,-0.169467,3.420621,3.735116,-0.896905,-0.031888,0.949732,0.311437,-0.214938,0.57102,-1.281346331239.46,-3.108681,-1.220206,-0.203812,2.849581,3.347204,-0.943422,-0.011302,0.93917,0.343266,-0.431829,-0.014136,-0.619267331239.48,-2.963473,-1.286147,-0.125394,3.563462,3.242593,-0.810883,-0.049756,0.95976,0.276378,-0.164661,1.008608,-1.220378331239.49,-2.890538,-1.315414,-0.072358,2.982512,1.77091,-0.746363,-0.062756,0.967567,0.244696,-0.177799,1.147378,-1.092169331239.5,-2.832844,-1.334193,-0.017855,1.950098,0.106842,-0.7845,-0.071227,0.97214,0.223318,-0.066468,0.992078,-0.752249331239.51,-2.778764,-1.347291,0.039969,1.674928,-0.199701,-0.816938,-0.078668,0.975126,0.207219,0.102746,0.479677,-0.305287331239.53,-2.620596,-1.380689,0.189538,2.510445,1.139888,-0.573461,-0.094056,0.981984,0.163893,0.481568,-0.239125,0.082552331239.52,-2.711055,-1.362243,0.107056,2.070252,0.388351,-0.731985,-0.086412,0.978331,0.18815,0.328645,0.007234,0.013891331239.54,-2.502907,-1.400839,0.293663,2.7802,1.667909,-0.424289,-0.100831,0.985592,0.135799,0.456422,-0.333065,-0.006115331239.56,-2.147878,-1.435473,0.610333,3.012868,2.268679,-0.425145,-0.113063,0.990858,0.073604,0.352839,-0.308576,-0.169002331239.55,-2.34914,-1.419996,0.42925,2.923389,2.091072,-0.389085,-0.106975,0.988651,0.105476,0.410869,-0.345661,-0.060783331239.57,-1.909411,-1.444518,0.827057,2.919566,2.39781,-0.450909,-0.118792,0.992037,0.041836,0.249117,-0.261111,-0.170468331239.59,-1.460882,-1.441437,1.236818,2.285421,1.878475,-0.396142,-0.12822,0.991645,-0.01415,0.086945,-0.049353,-0.326823331239.58,-1.666644,-1.445828,1.048991,2.697086,2.204161,-0.48216,-0.124071,0.992202,0.011929,0.150469,-0.140563,-0.261105331239.6,-1.307955,-1.434687,1.37503,1.836214,1.500642,-0.310294,-0.131029,0.990751,-0.035256,0.011477,0.00728,-0.293907331239.61,-1.19376,-1.426569,1.478931,1.599824,1.032035,-0.321615,-0.133633,0.989617,-0.052916,-0.026341,0.094306,-0.245454331239.62,-1.102617,-1.417457,1.561971,1.483062,0.902229,-0.32758,-0.136303,0.988267,-0.068925,0.001278,0.096313,-0.082777331239.63,-1.023544,-1.408125,1.631721,1.411716,1.084101,-0.264688,-0.138302,0.986798,-0.084272,0.02345,-0.04054,0.092359331239.64,-0.946411,-1.399004,1.696771,1.422482,1.404856,-0.123555,-0.138695,0.98528,-0.099936,0.081383,-0.231496,0.225181331239.65,-0.867125,-1.390274,1.760137,1.42167,1.801439,0.031129,-0.136897,0.98375,-0.116169,0.114589,-0.331971,0.314365331239.66,-0.78946,-1.381644,1.818876,1.376068,2.056931,0.112174,-0.133494,0.982164,-0.132414,0.143809,-0.340135,0.289015331239.68,-0.647331,-1.365253,1.920417,1.231096,2.130809,0.266577,-0.123084,0.97895,-0.162809,0.134971,-0.257194,0.142805331239.67,-0.716365,-1.37327,1.871755,1.293664,2.174992,0.197586,-0.128864,0.980555,-0.148007,0.144672,-0.276316,0.195203331239.69,-0.583134,-1.357266,1.965729,1.202293,1.954247,0.326654,-0.116688,0.977289,-0.176891,0.111744,-0.188989,0.057415331239.7,-0.524231,-1.348816,2.00827,1.220441,1.669544,0.337284,-0.110201,0.975463,-0.190596,0.097842,-0.143722,-0.029344331239.71,-0.474142,-1.339106,2.046413,1.293874,1.162413,0.272192,-0.10484,0.97328,-0.204292,0.111463,-0.111234,-0.127602331239.72,-0.434872,-1.328104,2.079954,1.363533,0.502839,0.212867,-0.101244,0.970694,-0.217949,0.137591,-0.116889,-0.206581331239.73,-0.405757,-1.316058,2.109172,1.416551,-0.038346,0.149836,-0.099465,0.967729,-0.231531,0.151589,-0.112932,-0.212744331239.74,-0.384028,-1.303278,2.133908,1.442988,-0.251045,0.082374,-0.099037,0.96443,-0.245086,0.152229,-0.083433,-0.088273331239.75,-0.365626,-1.290145,2.154639,1.436443,-0.0946,0.029524,-0.099031,0.960875,-0.258673,0.149751,-0.035445,0.122107331239.76,-0.346423,-1.277078,2.172228,1.404022,0.359624,0.007579,-0.0983,0.957174,-0.272315,0.158206,-0.007894,0.333228331239.77,-0.323761,-1.263929,2.18793,1.411286,0.910902,0.005973,-0.0961,0.953285,-0.28638,0.214157,0.014489,0.495166331239.78,-0.296321,-1.250615,2.203074,1.42345,1.44543,0.056781,-0.091905,0.949178,-0.301022,0.28589,0.061137,0.554043331239.79,-0.26342,-1.237797,2.219428,1.36839,1.843069,0.185362,-0.085114,0.945066,-0.315603,0.32602,0.075197,0.504721331239.8,-0.226945,-1.226329,2.237708,1.236192,1.946889,0.359005,-0.075982,0.941255,-0.329036,0.334237,0.06674,0.342784331239.81,-0.189182,-1.216501,2.258072,1.069237,1.848107,0.51801,-0.065242,0.937891,-0.34074,0.304317,0.064947,0.181072331239.83,-0.118453,-1.202207,2.296834,0.658673,1.731102,0.552154,-0.042579,0.932837,-0.357775,0.083106,0.144419,0.181612331239.82,-0.152636,-1.208447,2.278495,0.872995,1.732846,0.586051,-0.053895,0.935066,-0.350351,0.210832,0.110252,0.11706331239.84,-0.08851,-1.197303,2.310205,0.51695,1.766731,0.387444,-0.032253,0.931059,-0.363442,-0.041402,0.208361,0.314095331239.86,-0.046719,-1.189161,2.318383,0.341271,1.67088,-0.015272,-0.017394,0.928057,-0.372033,-0.232332,0.230207,0.332222331239.85,-0.064624,-1.192833,2.317159,0.452311,1.748474,0.165911,-0.023831,0.929418,-0.368258,-0.157855,0.242091,0.373477331239.87,-0.032796,-1.186804,2.316198,0.201824,1.585372,-0.110192,-0.012284,0.927176,-0.374424,-0.28308,0.187509,0.283054331239.88,-0.021359,-1.185607,2.312486,0.090698,1.470267,-0.15032,-0.008025,0.926727,-0.375649,-0.313066,0.155167,0.232979331239.89,-0.010949,-1.185431,2.3089,-0.009112,1.361913,-0.12844,-0.004116,0.926661,-0.375875,-0.318196,0.167333,0.247213331239.9,0.000147,-1.186169,2.306374,-0.094844,1.360301,-0.083269,0.000055,0.926938,-0.375214,-0.289423,0.207232,0.290298331239.91,0.013204,-1.187674,2.30541,-0.168733,1.422743,-0.021106,0.004936,0.927502,-0.373786,-0.226585,0.250904,0.32212331239.92,0.028704,-1.189906,2.306622,-0.247159,1.45548,0.063531,0.010669,0.928334,-0.371594,-0.141513,0.263469,0.332897331239.93,0.04682,-1.193149,2.310584,-0.361005,1.452117,0.157577,0.017258,0.929535,-0.36833,-0.054962,0.221771,0.361647331239.94,0.067183,-1.197576,2.317127,-0.500401,1.432724,0.234366,0.024478,0.931158,-0.363793,-0.008837,0.169214,0.391579331239.95,0.088644,-1.204137,2.326065,